# 
#                 ----------------------------------------------------
#                 Data from a 3D direct N-body simulation. 
# 
#                 rows are i-particle; 
#                 coumns are :mass, tag, x ,y, z, vx, vy, vz, ax, ay, az
# 
#                 NTHU, Computational Physics 
# 
#                 ----------------------------------------------------
#                 Time = 0.0
0.000000000000000000e+00 1.000000000000000000e+00 2.000000000000000000e+00 3.000000000000000000e+00 4.000000000000000000e+00 5.000000000000000000e+00 6.000000000000000000e+00 7.000000000000000000e+00 8.000000000000000000e+00 9.000000000000000000e+00 1.000000000000000000e+01 1.100000000000000000e+01 1.200000000000000000e+01 1.300000000000000000e+01 1.400000000000000000e+01 1.500000000000000000e+01 1.600000000000000000e+01 1.700000000000000000e+01 1.800000000000000000e+01 1.900000000000000000e+01 2.000000000000000000e+01 2.100000000000000000e+01 2.200000000000000000e+01 2.300000000000000000e+01 2.400000000000000000e+01 2.500000000000000000e+01 2.600000000000000000e+01 2.700000000000000000e+01 2.800000000000000000e+01 2.900000000000000000e+01 3.000000000000000000e+01 3.100000000000000000e+01 3.200000000000000000e+01 3.300000000000000000e+01 3.400000000000000000e+01 3.500000000000000000e+01 3.600000000000000000e+01 3.700000000000000000e+01 3.800000000000000000e+01 3.900000000000000000e+01 4.000000000000000000e+01 4.100000000000000000e+01 4.200000000000000000e+01 4.300000000000000000e+01 4.400000000000000000e+01 4.500000000000000000e+01 4.600000000000000000e+01 4.700000000000000000e+01 4.800000000000000000e+01 4.900000000000000000e+01 5.000000000000000000e+01 5.100000000000000000e+01 5.200000000000000000e+01 5.300000000000000000e+01 5.400000000000000000e+01 5.500000000000000000e+01 5.600000000000000000e+01 5.700000000000000000e+01 5.800000000000000000e+01 5.900000000000000000e+01 6.000000000000000000e+01 6.100000000000000000e+01 6.200000000000000000e+01 6.300000000000000000e+01 6.400000000000000000e+01 6.500000000000000000e+01 6.600000000000000000e+01 6.700000000000000000e+01 6.800000000000000000e+01 6.900000000000000000e+01 7.000000000000000000e+01 7.100000000000000000e+01 7.200000000000000000e+01 7.300000000000000000e+01 7.400000000000000000e+01 7.500000000000000000e+01 7.600000000000000000e+01 7.700000000000000000e+01 7.800000000000000000e+01 7.900000000000000000e+01 8.000000000000000000e+01 8.100000000000000000e+01 8.200000000000000000e+01 8.300000000000000000e+01 8.400000000000000000e+01 8.500000000000000000e+01 8.600000000000000000e+01 8.700000000000000000e+01 8.800000000000000000e+01 8.900000000000000000e+01 9.000000000000000000e+01 9.100000000000000000e+01 9.200000000000000000e+01 9.300000000000000000e+01 9.400000000000000000e+01 9.500000000000000000e+01 9.600000000000000000e+01 9.700000000000000000e+01 9.800000000000000000e+01 9.900000000000000000e+01
1.000000000000000056e-01 1.000000000000000056e-01 1.000000000000000056e-01 1.000000000000000056e-01 1.000000000000000056e-01 1.000000000000000056e-01 1.000000000000000056e-01 1.000000000000000056e-01 1.000000000000000056e-01 1.000000000000000056e-01 1.000000000000000056e-01 1.000000000000000056e-01 1.000000000000000056e-01 1.000000000000000056e-01 1.000000000000000056e-01 1.000000000000000056e-01 1.000000000000000056e-01 1.000000000000000056e-01 1.000000000000000056e-01 1.000000000000000056e-01 1.000000000000000056e-01 1.000000000000000056e-01 1.000000000000000056e-01 1.000000000000000056e-01 1.000000000000000056e-01 1.000000000000000056e-01 1.000000000000000056e-01 1.000000000000000056e-01 1.000000000000000056e-01 1.000000000000000056e-01 1.000000000000000056e-01 1.000000000000000056e-01 1.000000000000000056e-01 1.000000000000000056e-01 1.000000000000000056e-01 1.000000000000000056e-01 1.000000000000000056e-01 1.000000000000000056e-01 1.000000000000000056e-01 1.000000000000000056e-01 1.000000000000000056e-01 1.000000000000000056e-01 1.000000000000000056e-01 1.000000000000000056e-01 1.000000000000000056e-01 1.000000000000000056e-01 1.000000000000000056e-01 1.000000000000000056e-01 1.000000000000000056e-01 1.000000000000000056e-01 1.000000000000000056e-01 1.000000000000000056e-01 1.000000000000000056e-01 1.000000000000000056e-01 1.000000000000000056e-01 1.000000000000000056e-01 1.000000000000000056e-01 1.000000000000000056e-01 1.000000000000000056e-01 1.000000000000000056e-01 1.000000000000000056e-01 1.000000000000000056e-01 1.000000000000000056e-01 1.000000000000000056e-01 1.000000000000000056e-01 1.000000000000000056e-01 1.000000000000000056e-01 1.000000000000000056e-01 1.000000000000000056e-01 1.000000000000000056e-01 1.000000000000000056e-01 1.000000000000000056e-01 1.000000000000000056e-01 1.000000000000000056e-01 1.000000000000000056e-01 1.000000000000000056e-01 1.000000000000000056e-01 1.000000000000000056e-01 1.000000000000000056e-01 1.000000000000000056e-01 1.000000000000000056e-01 1.000000000000000056e-01 1.000000000000000056e-01 1.000000000000000056e-01 1.000000000000000056e-01 1.000000000000000056e-01 1.000000000000000056e-01 1.000000000000000056e-01 1.000000000000000056e-01 1.000000000000000056e-01 1.000000000000000056e-01 1.000000000000000056e-01 1.000000000000000056e-01 1.000000000000000056e-01 1.000000000000000056e-01 1.000000000000000056e-01 1.000000000000000056e-01 1.000000000000000056e-01 1.000000000000000056e-01 1.000000000000000056e-01
-1.781830612660929014e-01 -1.406084184256077840e+00 8.996959003249074271e-01 2.952685908768983014e-02 5.783308253924990261e-01 7.215464076154682882e-01 -8.595642517344900257e-01 6.767159658823626023e-01 -2.428404278138790451e-01 5.233252456974394340e-01 -6.309760738373040301e-01 1.701079829417408429e-01 2.769924300489380098e+00 1.603106041602150589e-01 -6.506548029808352229e-01 1.573211794842757971e+00 -2.148953715333050130e-01 1.256097686149229897e+00 7.680756013765929202e-01 -2.681700390136430023e+00 1.320394507696622151e-02 9.834214744595031199e-01 -4.436087960140836506e-01 -1.979009176571940642e+00 1.107561762860728542e-02 1.451790433934558866e+00 2.014775032829562718e-01 -3.356158671343073552e-02 1.131504565207073654e+00 -8.747360321744454548e-02 -1.072379857009149617e+00 -9.486616987187805883e-01 -9.158376799700812532e-01 1.388655178759898995e-02 -1.656686839739701433e+00 1.101960972547921802e+00 8.994943295143533746e-01 9.479900510843395356e-01 6.357002100799651334e-01 -1.281271378710244768e+00 -5.741315421213011999e-02 3.081661633777487141e-01 1.570264823329057924e+00 -1.455011666333151932e-01 1.444970228473778207e+00 -2.373141351725431392e+00 4.019933705213804553e-01 -1.650178449760986710e-01 2.229156184553274939e-04 3.333207315449604469e-02 2.281694472111891747e-01 2.654307591156337853e+00 1.117440575726561081e+00 1.589862324356794421e+00 7.281605951562670764e-01 1.444715041336043893e+00 -9.857228477981394565e-01 2.483742164848135481e+00 -2.278434154675808010e+00 7.135225975145984556e-01 -1.297630708325109739e+00 2.022555496036548273e-01 -3.935100814380422807e-01 -9.046067020820843796e-01 -2.555483599905505332e-01 1.160020692143311161e+00 3.343208528981459482e-01 2.123396430496675702e-01 -2.214649320759100704e+00 2.149265916291288603e-01 1.398978762792360886e+00 9.033194414687386598e-01 1.936900490793665330e+00 1.659878936674416883e+00 1.044050088408745303e-01 4.818840351887851980e-01 -5.756982178299974162e-01 -1.374860806009887693e+00 -7.752012475391569790e-01 9.616751496864022197e-01 9.855528051975370740e-02 -4.621501399967666845e-01 9.927168384818092772e-02 -8.090322695663699770e-01 2.478028054216931064e+00 -9.701650179555050268e-01 9.006956960451772964e-01 1.150670828331755935e+00 -1.201683611907693322e-01 7.411385886719867866e-01 4.709144547491467270e-01 -1.610458227364122141e-01 -7.342357886642356668e-01 -3.146763972188495018e+00 -1.506664073078692656e+00 -9.763429906203346942e-01 -7.781664196092096253e-01 -1.062430811155325339e+00 -6.707269381260420049e-01 -7.659838459636965184e-03
-5.491795079577177496e-01 1.038521978869062945e+00 -6.348774569211373953e-01 -2.975064398420882439e-01 5.217260061909215763e-01 1.988593679618364085e+00 1.744495488901513403e+00 -6.831367641225905007e-01 -2.174463202954100560e-01 -1.343165575051082916e-01 -1.941596121615695392e+00 -1.651294691117827507e-01 9.964147792505746448e-01 9.756595342356929601e-01 1.747615938320008944e+00 -7.285534478972505168e-01 -6.041063885347630613e-01 -4.056996005167732289e-01 -1.254381919841243143e+00 -8.004819548741377577e-01 -1.449220770505359468e-01 4.820694129900570113e-01 -6.721153110725470725e-01 1.423781970776031303e-01 1.228926908555887376e+00 2.027732188006949876e+00 1.253306611394505721e-01 -3.343298608469336686e-01 1.837565037281854829e+00 -1.803953322748852894e+00 6.694248219048493098e-01 7.813617631790895079e-02 -2.108992909904939261e-01 6.481299078379434420e-01 1.024246063178291699e+00 2.037207456879069380e-03 -6.075178979236359744e-01 -2.707845059721454284e-01 -6.270840654149240079e-01 -4.562128765658121088e-01 -8.490092648684774979e-01 -7.400146756126948500e-01 -7.925032279406781788e-01 9.425042467327835460e-01 -8.598471342761770941e-01 -8.964822753605919403e-02 1.481898707481385635e+00 -3.639743254905696279e-01 -1.421873819286343377e+00 -2.244155545306788513e-01 -7.649157748173288640e-01 7.954842708941141094e-01 7.286721047198445600e-01 8.066697493385943663e-01 5.691494159614257642e-02 -2.561412752918884594e-01 4.047168227994056844e-01 1.271961938892132160e+00 7.757772071517909929e-01 1.641738923895009084e+00 1.099408242752206999e-01 -1.420468247220950220e+00 7.214940243245790974e-01 -5.115685851174622822e-01 -2.274949986957393658e-02 -2.029901801416036655e-01 2.942503315965696586e-01 8.123314973780997317e-01 -3.472353847958716683e-02 5.862941978574073287e-01 6.291073276983394358e-01 -8.450654353806463792e-01 2.939712050188693637e-01 -3.135233253767842898e-01 -2.817390290249369933e+00 -4.156096584842813857e-02 -3.608625695755568463e-01 -1.295684295894511173e+00 1.072391605465667030e+00 6.811615212233637084e-01 -5.916178059357241059e-01 -1.028415910864426269e-01 -5.145461866053513411e-01 -4.387190434205323064e-01 5.609255507633691407e-01 1.657665216015500320e-01 1.932938730316735576e-01 1.580901349585657756e-01 1.144527099514747182e+00 -2.129616689488444514e+00 1.382288045189291825e+00 -1.725592443555446165e+00 -5.867912937382281369e-01 -4.044644935603183278e-01 -7.323462297508555041e-01 -3.420448029459993711e-01 -4.286350682494283193e-01 2.606133673666548578e-01 -1.538661816757446940e-02 -1.039799424546060003e+00
-3.636619974875716921e-02 1.509772219738404253e+00 -3.689601435316376687e-02 -5.901959144786068645e-01 -1.724431372631297199e+00 -1.783925346974673865e+00 -2.478588996460785177e-01 5.872756323681918023e-01 -6.666594774511238608e-01 -1.866621019012094429e+00 -1.559808293420579695e+00 -1.811310425464649487e+00 6.579611859753118353e-01 8.791944629525714205e-01 1.564624086601448916e+00 1.729810004936561896e+00 4.977386996395957719e-01 -1.020738573906312618e+00 8.546687116832670794e-01 -6.611486354484836792e-01 -6.576119471237470426e-01 -1.423252682840434220e-02 -7.190080669402513225e-01 3.380917496396131094e-02 -8.358915876175427861e-01 4.563914640910991805e-02 7.837000218171334964e-01 5.163007729203374918e-01 1.183163765126580502e+00 5.804797965667494175e-01 -4.936450315008336087e-01 1.110144596194719169e+00 1.228856583899955002e+00 -2.954192527561093629e-01 7.228785076224606421e-01 -2.029260542031158465e+00 -4.938439684064317714e-02 6.436736526352321297e-02 1.180372266466695352e+00 -2.658678384109869342e+00 -1.230169750444972121e-01 -3.332102402535449537e-01 4.837517575048180807e-01 -1.311797106358162102e-01 9.704362743314203232e-01 7.280690523318876783e-01 6.042036965751482747e-01 -1.087312443975892329e+00 -5.176792362585027618e-01 -1.038410304746522073e+00 -5.430453914593218467e-01 6.475640157638720140e-01 -9.985844094088005551e-01 -4.469271781673944122e-01 -1.116528362575213595e+00 1.608021481013247322e-01 -1.649154129892600018e+00 -3.803513385109549283e-01 2.034000263356926588e-02 -2.755503891452115717e+00 -7.988142741282755477e-01 -1.972991004259990522e+00 3.304841259100481099e-01 2.615536745417706976e-01 9.048726337835313327e-01 -9.364965098611337524e-01 1.765561989093513695e+00 -9.349000140875224352e-01 3.237164267463696454e+00 8.379128379687561523e-01 4.684992618020647481e-02 -2.905679397490589233e-01 5.089286025869468322e-01 5.451424382927945178e-01 4.438618554101787517e-01 -1.616587235194688166e+00 -1.251304203050305486e-01 -1.729302608896087667e+00 2.067345065139134519e-01 3.671164483753225571e+00 -1.031306626857154907e+00 2.734063484240868980e-01 -9.814469126602678450e-01 -1.168288882476978596e+00 -8.922190725031304837e-01 3.926592360429655981e-01 7.366118552006627462e-01 -1.464611101153051043e-01 5.137105383957596416e-01 1.631138537705841829e+00 -2.345019474381398350e+00 -3.161003076642349141e-01 7.554455173044924976e-01 3.610879576892169207e-01 2.189505057624924422e+00 9.424124166187795026e-01 1.518582912805784002e-01 1.469251261108740714e+00 9.926933125812639203e-01 -1.712199961005293591e+00
-1.207330967176457381e+00 1.098102666659957816e+00 1.016443633700055971e+00 -2.830580783989907090e+00 1.085750928311965513e+00 1.504671772911481131e+00 1.805569016406099792e+00 -1.764154262869759071e+00 1.147029177384983889e+00 -6.092658627504871083e-01 -4.220917950277823794e-01 1.883010936620577613e+00 1.673598858511299303e-01 1.952620767704217775e+00 3.686991910249974858e-01 -9.910555082923466763e-01 -2.073475885167773480e+00 -3.315225510748558424e-01 -7.375065242746745575e-01 3.074796386017079608e-01 6.629519939867977163e-01 1.134183264913430633e-01 -8.412765420369672231e-01 -9.788569876109941559e-01 6.121871915263616959e-01 7.904389713997870270e-01 1.874734620225008142e-01 -5.555914231028322714e-01 -8.305291916772991057e-01 -1.832898306877295269e-01 -1.351327298991338022e-01 7.019097118451487205e-01 -6.756877354594367224e-01 -5.559730081488276632e-01 -1.136740666156667440e-01 1.455357441214793823e+00 -1.571213040122608540e+00 3.849772355284842851e-01 3.799011444065900633e-01 -7.060497140332577803e-01 -1.469197602640830880e+00 1.112598327673901988e+00 -2.051403921521721130e-01 7.363281358809946608e-01 1.319694531651621539e+00 -4.231125242871869307e-01 -7.167546158274840096e-01 -2.109408644700767610e-01 -1.669003052037224988e+00 -2.282248724404951634e-01 6.850695928116654621e-01 5.703836110864415332e-01 -8.339605104877364505e-01 -3.464396996496268422e-01 -5.441517805103437411e-01 -4.356512408023568428e-01 7.730044497404839343e-02 -2.055518393243655761e-01 -4.644696636890642272e-01 2.988802244368455874e-01 1.341617389702575824e+00 1.853763515208854407e-01 7.087244748337575562e-01 2.380565670226276742e-01 3.700796414861431405e-01 1.328610769009660686e+00 1.098308635679217105e-01 2.055086264212518277e+00 -1.695132337586303439e+00 2.842336619329047132e+00 2.498523567294144154e-01 5.590926160569671399e-01 -1.625282085858328618e-01 7.842699400059811587e-01 7.160978738591297077e-01 -2.617891939057752637e+00 5.140955644236572253e-01 -6.451211949917698973e-01 -6.287602839284336387e-01 2.619110884975478504e-01 2.063966034834480823e+00 1.485373297034551232e+00 -4.698993935729526283e-01 2.179963112885846765e+00 -1.443748077363597115e+00 4.217829298864262944e-01 -1.007652651212497474e+00 -6.689629386290310009e-01 1.030041272251487783e+00 9.358940049696210517e-01 1.059431650199014197e+00 9.479168594580168472e-01 -5.851084761245606281e-01 -8.436890547333586454e-02 -8.189758984712689482e-01 -4.619473715344929454e-02 -1.204959587809477511e-01 -3.323905282796388860e+00 -1.418274638284042731e-02 7.853579824979848301e-01
1.217773896337360773e+00 -3.140729811138583960e-01 8.082124269617733114e-01 -1.726542570495654516e+00 1.536595988409449109e+00 1.799904493176723408e+00 8.806483594214209454e-01 -4.280859732207836776e-01 7.769666123753654619e-01 1.154995712461657220e-01 2.573773210217729646e-01 -2.364683212821003355e+00 -1.020621758114010680e+00 1.340609681668078812e+00 -9.080304905853811004e-01 1.360914017857076663e+00 -1.308370397890893599e+00 -5.485663231605164558e-01 -1.529022627586303695e+00 -2.567190515527340899e+00 1.528604294917603301e+00 -1.503502535490400138e+00 2.317151799242215260e-01 5.612607637822790707e-01 2.305142591718417622e-01 -1.653744347518397995e-01 -1.462600832283993180e+00 1.739928505001660630e+00 1.893920678578831396e+00 -1.514481327054526538e+00 -1.474933100135551900e+00 8.333454057894020828e-01 -3.222909928305097704e-01 -5.611529771518988241e-01 -5.326007808164359703e-02 -1.013631655657408759e+00 -8.200239376313203099e-01 -5.518120365888476986e-01 1.230487163455833199e+00 1.541146590865364541e+00 6.239750100842159641e-01 1.850708207966827334e+00 -3.112919145949389899e-01 -7.954397879572346897e-01 3.871613406714685679e-01 -7.496012347050313718e-01 9.646686363178705315e-02 3.871079711056855110e-01 -2.528272467905673615e+00 -5.829923099941171083e-01 -2.492273010769110009e+00 1.352397675890143258e+00 1.372154407189760672e+00 -1.238636382354861620e+00 -2.751169461706652886e-01 -2.125930772151493064e-01 -2.107815382862776032e-01 8.942929985936627357e-01 -4.992679429760822352e-01 2.356933795031363132e+00 -1.110599695697918471e-01 -2.329704179731195701e+00 6.814973948393083791e-01 3.440221373263507854e-01 1.221576330935323362e+00 -1.351458553462155043e+00 4.394295344114065305e-01 3.645699036357800127e-01 7.409692047038796137e-01 1.283859000151511331e+00 2.207839270579147750e-01 4.937226151946332298e-01 -1.054297362382727865e+00 -1.722492337546073782e-01 -6.284664158354227315e-01 -4.090611824083248416e-01 -9.495027883512233147e-02 -8.859223012858058466e-02 -1.389184031416440757e+00 1.767679744534356445e-01 -9.059423201916183555e-01 1.755296160902095615e+00 -1.887177162844307698e+00 -1.261529573843835461e+00 -2.496644224996248107e-01 -5.094342001899871963e-01 -2.007094436873019916e+00 -1.111625129217016728e+00 -3.805898149960185717e-01 1.036665262466844421e-02 8.246831173654720626e-01 -4.362438658077335552e-01 4.344487666012181171e-01 -1.643955090573437472e+00 -5.366693761440980426e-01 2.131469306205915792e+00 1.403365402073796453e+00 -2.360990383621328625e-01 -4.205559959447105478e-02 -1.592748387299563806e+00
-1.779824031977120136e+00 3.580293453800921788e-01 1.398544059214660074e+00 6.300154576955532271e-01 -2.599203602623269549e-01 4.767574398689418125e-01 2.001982108157705831e+00 9.147225602538375799e-01 -1.035583919441384504e+00 8.341652413359437190e-01 -5.860394258554642022e-01 -8.574579056913465003e-01 -5.868977342657266671e-01 6.874714636050607286e-01 6.237073370203660705e-01 -2.423256074224167944e-01 5.572260417300988200e-01 -1.407721841542405983e+00 -1.926624306806872244e-01 1.105935607684870092e+00 -3.581785243628540227e-01 -6.480329554198955844e-01 1.354248837320635168e+00 1.766996812708652165e+00 -1.871333926059066122e-01 -1.898684603589341213e-01 -1.715543072591476870e+00 1.306109901466095735e+00 -1.279494324150491469e+00 1.473185935072967245e+00 2.749556468472974524e-01 -1.082672215247950209e+00 2.904081496272410412e-01 7.685151599420285695e-01 6.048401362308595264e-01 1.023619323837921868e+00 -1.302486277239506496e+00 1.386617711313371304e+00 -9.137248722573169113e-01 1.027193877279620526e+00 2.994963514556919226e-01 -8.843087960231796885e-01 -6.831140273842216670e-01 -2.262309466377373290e+00 -6.896381266102217245e-01 1.727737557478800534e+00 -1.288433504422092479e+00 6.533394595125128212e-01 5.751359313924958583e-01 -5.716060345913061003e-01 -9.763674162325937100e-01 -7.596295112251829629e-01 -9.337447978179136410e-01 1.145962582486054870e+00 -3.540294386757147915e-01 2.123673847555345717e-01 -1.011329005328403863e+00 -4.044808536516175668e-01 2.462306487369811947e+00 5.693092946837290391e-01 3.732288656099451152e-01 4.621437172313572761e-01 -7.013642597960803027e-01 2.795173105802201796e+00 -6.927238136475479813e-01 7.004504273324472230e-01 5.095054081910702637e-01 -2.932813551413973041e-01 1.935780549695657271e+00 8.680008392716148657e-02 9.722555980051573732e-01 1.953217258779596399e+00 -8.338458438616171975e-01 -8.519682469162696004e-01 3.759477258087154383e-01 -9.751521762576396135e-01 4.535954896508323508e-01 -4.869262183573123681e-01 -1.113484977682552390e+00 7.529226692295793999e-01 1.738069390233920597e+00 2.058293220929118261e-01 -3.426719862861595245e-01 -1.513773744027505863e+00 -8.558492040015541757e-01 -6.552231298110844371e-01 7.868847079530216782e-01 1.342278185165964199e+00 2.671396422535925463e-01 5.970049692084197224e-01 6.703059403369409086e-01 1.403746355889338382e+00 4.106835149070755531e-01 1.494793577661126527e+00 -3.979843865287449045e-01 1.008717351962487907e+00 -6.446027312609882154e-01 -2.902254862424579196e-01 -2.022227083484957610e+00 -5.790092065556124989e-01
4.119114133646331055e-01 7.707191378032079987e-01 -1.873945286779945985e+00 -1.217822956845313609e+00 -3.684679326333119009e-01 -2.198662749690280249e-01 6.285747120033245983e-01 -5.315013841729240296e-01 3.467729918060650007e+00 -1.140778872984240744e+00 3.909465865122224160e-01 1.291277203795822226e+00 -1.842496107486787160e+00 -3.175898514918644167e-01 2.423410915567057733e-01 -7.631972941890893258e-01 3.668870716766197693e-01 -2.295178483685254900e+00 -4.814283213670793593e-01 8.654909429090429374e-01 -7.716768889699465728e-01 -2.175858363951383156e-01 2.044319162096000397e+00 1.271501607143262769e+00 2.844132066312884399e-01 -5.081845732832482865e-01 -7.352266942580704123e-01 -9.090075315973964454e-01 -4.687186081055457754e-01 2.238228676276288742e-01 1.210959293327749098e+00 1.881781902552638108e+00 1.038941169137008957e+00 -2.393023525928665018e-01 1.081495143504096701e+00 -1.199549289136784713e+00 -3.740407086046664276e-01 -9.145083579199541068e-01 -3.970206203940453427e-01 5.125598812270116822e-01 3.887039356987629368e-01 -1.556855020008978130e+00 -1.621108077237680467e+00 3.392103975977507346e-01 -1.105162902460694374e+00 1.113762851201794080e+00 -5.259751616515898620e-01 3.164088696744093099e+00 -6.885312643083270345e-02 -8.946189318745849661e-01 -2.576802224423556109e-01 -1.246906773568353527e-01 -9.605506771223190077e-01 -1.296015950550184925e+00 -9.554876189321109825e-01 -1.934512960126597791e+00 8.964746510567579429e-01 -9.538364762814338649e-01 1.187432018229978903e+00 -2.800723461006622284e-01 1.539179730206422514e+00 -3.082400158938300994e-01 6.451179816309324799e-01 3.978164196781249995e+00 -2.528742950978880022e-01 -1.052653660777448374e+00 -3.110412815923150331e-01 -1.687689515210894775e-01 3.441465162894852270e-01 -5.418114689196416034e-01 -1.505686275100085902e+00 -1.494577543983024670e+00 -1.473356769861203563e+00 -1.860357155838364029e+00 -5.435495051649964077e-03 -5.754724309440509833e-01 1.428800539120875790e+00 8.202941541536930004e-01 1.197766580235626099e+00 -1.391919968475102964e-01 -7.520046485072708897e-01 4.961720516836314876e-01 -1.327084381458482065e+00 1.743901363542378125e+00 -1.131933232209974882e+00 1.769981850289358283e+00 -9.967145131352901366e-01 -1.393238092345495671e+00 2.629950965627969595e-01 -2.193196331782308606e-01 9.497360947950334031e-02 5.318006492801727880e-01 7.955497381269970303e-01 9.422450635585761791e-01 5.326607025648221194e-01 2.150940414549534108e+00 4.837978076348969925e-01 1.086004851958948025e+00 -3.315481814593111420e-01 2.439866410535647678e-01
4.767321847516403088e-01 -7.509514116973788900e-01 1.014496258497341188e+02 2.600624391191174833e+00 -1.235792817512910036e+00 -9.460064560143123247e-01 -1.392933812935533977e+00 9.418371416860604750e-01 -9.286731562910234272e-01 5.839696800380353991e-01 1.089708738470462901e+00 2.131437858967513699e-01 -1.969194577357056275e+00 -1.591271944394912152e+00 -9.436892814753623515e-01 3.197308556561601622e-01 2.122875113393114521e+00 2.031120898592026602e+00 1.584942076430780444e+00 3.219732873081575519e-01 -4.846076599070831215e+00 -1.474608939339040026e+00 1.764227165368876360e+00 1.313427532424483665e-03 -1.830976476740498571e+00 -1.052059572195175541e+00 -2.952841996371939892e-01 -4.514204499783140007e-02 -8.981430602643116767e-01 1.426853902866194179e+00 -1.000575495114888191e+00 -1.590045425541114499e+00 1.244815783282298804e+00 -7.741990104162401742e-01 -8.601325995320460160e-01 -2.164231494838862388e-02 -9.934223773592854911e+01 -9.504852556030387589e-01 5.506519162616955176e-01 8.687721109189699975e-02 2.630589762267836029e+00 1.282877737561536113e+00 1.337352242675145853e+00 -1.952144716530082258e+00 9.031414420193284442e-01 1.159765350013342161e-01 -1.672768563659784213e+00 3.433348364512411877e-01 1.823013247292330830e+00 -2.623855086922340263e+00 2.190309085207492235e+00 1.243432167860603288e+00 -1.109357362018217774e+00 -1.038654297428338591e+00 -6.657505539772563541e-01 1.116201649647385469e-01 -5.696176450703407390e-01 -6.902915827958521211e-01 -6.327641649608768404e-01 -6.237482980280842915e-01 -2.072160278024520463e-01 1.202274525231372237e+00 -9.176952406276264185e-01 2.409466153461302884e+00 -2.662660955149155351e-01 -1.099237876766578470e+00 -2.862282320025383853e-01 -1.120520546786531346e+00 -4.100140090528441028e-03 -7.565768920550455245e-01 -1.281849342927047664e+00 2.667939821775937581e+00 -4.090547959069323336e-01 3.652574159184611424e-02 1.048819889731196442e+00 -6.619899968510786215e-01 8.791882169117681833e-02 6.022606708027569145e-01 -1.516664711618884942e+00 -1.096515853172459198e-01 1.218307208714130141e+01 -9.771820716542505281e-01 -7.505881730393888951e+00 3.803198038604030939e-01 -1.416947587731224589e-01 -9.157283479444556784e-01 -6.051677783502912300e-01 -3.216331848810879968e-01 -1.837914883734154570e+00 8.190168552044999606e-01 -4.611291165093852618e-01 2.215270327595631361e+00 1.980136240235493839e+00 1.691085225165802342e-01 3.889573694603004617e-01 1.353462224551638338e+00 -1.775578334758014520e-01 -8.256725073562141137e-01 -5.420270040338155404e-01 9.304954740677473524e-01
-5.277889751462470080e-01 -9.331259630182111575e-01 -4.633621996196559678e+01 -1.970743927586442235e+00 1.413763389182393304e+00 4.433285157172087154e-01 2.682586360508096290e-01 -1.175609175845822696e+00 4.184111126184147933e-01 3.099308755460695508e+00 6.174938411430432872e-01 2.163324433060587193e+00 -4.335246867699515394e-01 -1.446800400747043192e+00 -7.557012367486602988e-01 -1.155587882656101240e+00 -1.327316128357075575e+00 1.593833060747747554e+00 -9.557412243903501414e-01 2.765091913004632529e-01 1.091374376983281769e+00 -2.526328216843382601e-01 7.602840352229185417e-01 1.597650149904528138e-01 7.342844182483575510e-01 -2.449210721741051575e-02 -1.260161110212652202e+00 -1.143345265003626210e+00 -6.457157673575661949e-01 -6.192042534566141176e-01 6.109983637104015042e-01 -1.163740707682849429e+00 -3.045880054612880361e+00 5.385151914578805155e-01 -3.582118572881618501e-01 1.527904269141690863e+00 4.546681368327274697e+01 -6.725130409957960076e-01 -1.798779479604427856e+00 8.984067829705917330e-01 -5.347801184492231297e-01 -1.510960783757860915e+00 -2.868824272568258893e-01 1.908738486483924912e-01 -1.275395912717704139e+00 -4.541765157464191516e-01 -4.303795649166686776e-01 3.063244590582488325e+00 7.159471226233520280e-01 2.392432688339933833e+00 2.053924674678749174e+00 -3.111720389437807044e-01 8.578479502942765178e-01 5.325947274315538937e-01 9.318539298763521828e-01 7.234176929479880364e-03 1.162952739205059594e+00 1.873704166318629349e-01 1.405888288144022946e-01 1.008062368603025893e+00 7.859513870044941841e-01 1.279559785670604910e+00 -4.409683445301488258e-01 -1.663990151509066484e+00 -1.748981418919791864e+00 3.266905240114680309e-01 -1.594887948913260578e+00 1.021633676898799692e+00 -5.301181552385577644e-01 -1.214503988806630241e+00 -4.639523766963802309e-01 1.541890061769897180e+00 -6.308445403885319935e-01 -1.081809353779241256e+00 -1.636144920646638301e-01 3.494037900905358485e-01 1.085895765301879257e+00 7.023151395447203571e-01 -1.092580260479669024e-01 -5.686238550300659611e-01 8.323139560624975175e+00 -3.547208570165483743e-01 -4.688999443041788950e+00 1.396562404989582395e+00 5.203769423711915865e-01 -1.145842954054002161e-01 -1.323169903165392958e+00 5.415617836035128141e-01 -4.807971977651893658e-01 -6.749706941405201333e-01 7.163847175972934966e-01 -1.157065127442025720e-01 -1.162172801877128236e+00 -9.079891939181357341e-02 -8.620548488185603153e-01 -5.963073759377777172e-01 1.306702045603697293e+00 -2.049582565759241248e+00 -1.041692098410046619e+00 1.348120836512944232e+00
