# 
#                 ----------------------------------------------------
#                 Data from a 3D direct N-body simulation. 
# 
#                 rows are i-particle; 
#                 coumns are :mass, tag, x ,y, z, vx, vy, vz, ax, ay, az
# 
#                 NTHU, Computational Physics 
# 
#                 ----------------------------------------------------
#                 Time = 0.0
0.000000000000000000e+00 1.000000000000000000e+00 2.000000000000000000e+00 3.000000000000000000e+00 4.000000000000000000e+00 5.000000000000000000e+00 6.000000000000000000e+00 7.000000000000000000e+00 8.000000000000000000e+00 9.000000000000000000e+00 1.000000000000000000e+01 1.100000000000000000e+01 1.200000000000000000e+01 1.300000000000000000e+01 1.400000000000000000e+01 1.500000000000000000e+01 1.600000000000000000e+01 1.700000000000000000e+01 1.800000000000000000e+01 1.900000000000000000e+01 2.000000000000000000e+01 2.100000000000000000e+01 2.200000000000000000e+01 2.300000000000000000e+01 2.400000000000000000e+01 2.500000000000000000e+01 2.600000000000000000e+01 2.700000000000000000e+01 2.800000000000000000e+01 2.900000000000000000e+01 3.000000000000000000e+01 3.100000000000000000e+01 3.200000000000000000e+01 3.300000000000000000e+01 3.400000000000000000e+01 3.500000000000000000e+01 3.600000000000000000e+01 3.700000000000000000e+01 3.800000000000000000e+01 3.900000000000000000e+01 4.000000000000000000e+01 4.100000000000000000e+01 4.200000000000000000e+01 4.300000000000000000e+01 4.400000000000000000e+01 4.500000000000000000e+01 4.600000000000000000e+01 4.700000000000000000e+01 4.800000000000000000e+01 4.900000000000000000e+01 5.000000000000000000e+01 5.100000000000000000e+01 5.200000000000000000e+01 5.300000000000000000e+01 5.400000000000000000e+01 5.500000000000000000e+01 5.600000000000000000e+01 5.700000000000000000e+01 5.800000000000000000e+01 5.900000000000000000e+01 6.000000000000000000e+01 6.100000000000000000e+01 6.200000000000000000e+01 6.300000000000000000e+01 6.400000000000000000e+01 6.500000000000000000e+01 6.600000000000000000e+01 6.700000000000000000e+01 6.800000000000000000e+01 6.900000000000000000e+01 7.000000000000000000e+01 7.100000000000000000e+01 7.200000000000000000e+01 7.300000000000000000e+01 7.400000000000000000e+01 7.500000000000000000e+01 7.600000000000000000e+01 7.700000000000000000e+01 7.800000000000000000e+01 7.900000000000000000e+01 8.000000000000000000e+01 8.100000000000000000e+01 8.200000000000000000e+01 8.300000000000000000e+01 8.400000000000000000e+01 8.500000000000000000e+01 8.600000000000000000e+01 8.700000000000000000e+01 8.800000000000000000e+01 8.900000000000000000e+01 9.000000000000000000e+01 9.100000000000000000e+01 9.200000000000000000e+01 9.300000000000000000e+01 9.400000000000000000e+01 9.500000000000000000e+01 9.600000000000000000e+01 9.700000000000000000e+01 9.800000000000000000e+01 9.900000000000000000e+01
1.000000000000000056e-01 1.000000000000000056e-01 1.000000000000000056e-01 1.000000000000000056e-01 1.000000000000000056e-01 1.000000000000000056e-01 1.000000000000000056e-01 1.000000000000000056e-01 1.000000000000000056e-01 1.000000000000000056e-01 1.000000000000000056e-01 1.000000000000000056e-01 1.000000000000000056e-01 1.000000000000000056e-01 1.000000000000000056e-01 1.000000000000000056e-01 1.000000000000000056e-01 1.000000000000000056e-01 1.000000000000000056e-01 1.000000000000000056e-01 1.000000000000000056e-01 1.000000000000000056e-01 1.000000000000000056e-01 1.000000000000000056e-01 1.000000000000000056e-01 1.000000000000000056e-01 1.000000000000000056e-01 1.000000000000000056e-01 1.000000000000000056e-01 1.000000000000000056e-01 1.000000000000000056e-01 1.000000000000000056e-01 1.000000000000000056e-01 1.000000000000000056e-01 1.000000000000000056e-01 1.000000000000000056e-01 1.000000000000000056e-01 1.000000000000000056e-01 1.000000000000000056e-01 1.000000000000000056e-01 1.000000000000000056e-01 1.000000000000000056e-01 1.000000000000000056e-01 1.000000000000000056e-01 1.000000000000000056e-01 1.000000000000000056e-01 1.000000000000000056e-01 1.000000000000000056e-01 1.000000000000000056e-01 1.000000000000000056e-01 1.000000000000000056e-01 1.000000000000000056e-01 1.000000000000000056e-01 1.000000000000000056e-01 1.000000000000000056e-01 1.000000000000000056e-01 1.000000000000000056e-01 1.000000000000000056e-01 1.000000000000000056e-01 1.000000000000000056e-01 1.000000000000000056e-01 1.000000000000000056e-01 1.000000000000000056e-01 1.000000000000000056e-01 1.000000000000000056e-01 1.000000000000000056e-01 1.000000000000000056e-01 1.000000000000000056e-01 1.000000000000000056e-01 1.000000000000000056e-01 1.000000000000000056e-01 1.000000000000000056e-01 1.000000000000000056e-01 1.000000000000000056e-01 1.000000000000000056e-01 1.000000000000000056e-01 1.000000000000000056e-01 1.000000000000000056e-01 1.000000000000000056e-01 1.000000000000000056e-01 1.000000000000000056e-01 1.000000000000000056e-01 1.000000000000000056e-01 1.000000000000000056e-01 1.000000000000000056e-01 1.000000000000000056e-01 1.000000000000000056e-01 1.000000000000000056e-01 1.000000000000000056e-01 1.000000000000000056e-01 1.000000000000000056e-01 1.000000000000000056e-01 1.000000000000000056e-01 1.000000000000000056e-01 1.000000000000000056e-01 1.000000000000000056e-01 1.000000000000000056e-01 1.000000000000000056e-01 1.000000000000000056e-01 1.000000000000000056e-01
-4.181170509100106125e-01 -1.172429271796181505e+00 9.884719804320962755e-01 -5.452884678763831872e-01 7.874556436058661735e-01 1.017793334466213562e+00 -4.871312956036356612e-01 3.173680180169918819e-01 3.359906851936426270e-02 3.620192725537124678e-01 -7.067512279052257096e-01 5.604709849804534461e-01 2.682163658285694918e+00 5.440326397661390256e-01 -5.723638099108003807e-01 1.360015966849655200e+00 -6.256937019824424517e-01 1.157333862594985163e+00 6.113314478616277414e-01 -2.603613961389662723e+00 1.170261704957845095e-01 9.986876203793808582e-01 -5.529130038674510139e-01 -2.150418878131107103e+00 1.393228259417430837e-01 1.599363064241889898e+00 2.194033686654437432e-01 -1.542554899007277380e-01 9.568191816068188915e-01 -1.193899960449251313e-01 -1.072600066358824211e+00 -7.819500331150395223e-01 -1.029381395333796245e+00 -1.013434771760439029e-01 -1.658555292788122859e+00 1.370258978736220712e+00 6.880209504410341737e-01 1.008889654747605835e+00 7.013447779112467195e-01 -1.411456992747471162e+00 -3.473187379941816699e-01 5.086350591346063821e-01 1.497631222596216283e+00 9.050268018537494658e-03 1.684872658670476975e+00 -2.436064007718451663e+00 2.493773082412775732e-01 -1.409272135602229470e-01 -3.272862543854304640e-01 -4.397407605768784145e-02 3.546424843707892682e-01 2.850739409143577596e+00 9.306587066568663413e-01 1.493721974262464114e+00 5.990193055827670587e-01 1.315585800061112476e+00 -9.529776226182392618e-01 2.424237667099074400e+00 -2.346818017813205870e+00 7.690495016768585934e-01 -9.972587362576266212e-01 2.334450069074980316e-01 -2.401805878772016456e-01 -8.089982720413937400e-01 -1.830333067667754277e-01 1.394853259624087238e+00 3.509420556069898778e-01 6.184166813867787438e-01 -2.547323135003172645e+00 7.687071551754353083e-01 1.423075735903658989e+00 9.640527775125635745e-01 1.871679280824604774e+00 1.775879844852036538e+00 2.470588903679069581e-01 -2.468140997219975263e-02 -4.416374286121350634e-01 -1.487721159044225860e+00 -8.759382599377636414e-01 1.011324870087236150e+00 4.017115798053180753e-01 -1.584149590289616327e-01 8.568111322143848185e-02 -3.403440977933933631e-01 2.166516739165299299e+00 -8.475972586530391428e-01 6.791508773020070722e-01 9.903776001229069870e-01 9.125175042626104682e-02 9.234184116206567428e-01 6.832961872567868689e-01 3.217018110500459438e-02 -8.319581254126324765e-01 -3.145402159428767774e+00 -1.659778300893881120e+00 -9.452192579124567562e-01 -7.615365005026399903e-01 -1.702742782752932449e+00 -6.733543880788834812e-01 1.523800055856292246e-01
-3.015435081050802379e-01 9.600490949280465758e-01 -3.766228318458424429e-01 -6.203680729730691734e-01 8.095146560775914324e-01 2.330331051338932369e+00 1.892436068877527244e+00 -7.450169454529467217e-01 -8.749245237681188558e-02 -1.134123767659345194e-01 -1.869049880088509585e+00 -6.135648206742339017e-01 8.097537221489234938e-01 1.213353386692234137e+00 1.547446025325090346e+00 -4.506318471805181858e-01 -8.251658653905654672e-01 -4.866481907339245128e-01 -1.530237037546650081e+00 -1.306812679345795258e+00 1.049313934905013457e-01 1.469247922759309988e-01 -5.870929209875505039e-01 2.552656430546289545e-01 1.239717658385713461e+00 1.974098866971798705e+00 -1.758647007121229566e-01 2.889612062388670355e-02 2.197447128670005689e+00 -2.080720979390155101e+00 3.535849051605955973e-01 2.055858573734977435e-01 -2.502645825688538661e-01 5.259258549794982862e-01 9.956448387349098317e-01 -2.002625478877554932e-01 -8.359553829578300066e-01 -3.957250255965500951e-01 -3.686447303501306227e-01 -1.469832629809223468e-01 -6.732515256621005584e-01 -3.577730833146904876e-01 -8.256696541117186650e-01 7.390544185333445260e-01 -7.641861744191207340e-01 -2.365981571112288351e-01 1.465370283537615670e+00 -2.757788660075646270e-01 -1.897100617642712095e+00 -3.675252927789292023e-01 -1.210551571371896840e+00 1.034313178640027253e+00 9.812629922668989479e-01 5.390790505373226349e-01 -1.020641560458232164e-02 -2.970923061010329880e-01 3.517518448430416722e-01 1.437283254710692404e+00 6.626087744987951833e-01 2.100290818144794791e+00 8.457340191735093771e-02 -1.861388538028635908e+00 8.335545018786598703e-01 -4.273032179996916202e-01 2.027007145722303783e-01 -4.825810912695750465e-01 3.763541701900420255e-01 8.624436456978208376e-01 1.132714433148333810e-01 8.300321403460763081e-01 6.478576470464527670e-01 -6.775629438160523099e-01 7.372841465333608568e-02 -3.446748824622765106e-01 -2.922328307025578553e+00 -1.446185733782444083e-01 -3.758793162572944824e-01 -1.302239613390830719e+00 7.647629533009302483e-01 7.143809606751605479e-01 -6.671544300794359783e-01 2.293499776103026244e-01 -9.214435652784299657e-01 -6.797326651716211199e-01 5.073617973605699660e-01 4.428242576727219743e-02 -2.197947423263076905e-01 -7.112196772437409664e-02 1.035975548658076839e+00 -2.111876139991165857e+00 1.537855898644663322e+00 -1.770348869746079856e+00 -4.455008895936215518e-01 -7.292480290849012725e-01 -8.317050805123946677e-01 9.904947125592586388e-02 -1.430425860496861712e-01 2.031925994360491705e-01 -3.199587383769954968e-02 -1.341250461355580459e+00
-3.981605932946046256e-01 1.561891835064010747e+00 8.441206639312477666e-02 -4.658310269779886159e-01 -1.748822770718546415e+00 -1.680472148001803667e+00 1.559029580744044075e-01 7.479637484981643825e-01 -8.592412273724174820e-01 -1.647503774146283018e+00 -1.664560966867429048e+00 -1.934303162674975596e+00 4.993487173008013813e-01 9.878316043311146100e-01 1.673632333297729646e+00 1.657226023150278449e+00 5.872582154886554218e-01 -1.264025688140970161e+00 7.982531301268609436e-01 -4.351626179992381660e-01 -7.258902434422187522e-01 -1.408146290974209291e-01 -4.324386422244201889e-01 3.903610048632356611e-01 -8.580482119646963834e-01 7.234515208401377274e-03 4.191284198130525995e-01 7.552023188322383174e-01 9.155396271749420833e-01 8.627843420943136499e-01 -4.264356936894653227e-01 8.647313740638919999e-01 1.219444714763241011e+00 -1.360339641458345739e-01 8.366501466607002557e-01 -1.796133469085559042e+00 -1.546143915989521278e-01 3.127795058352734747e-01 9.585430467888160777e-01 -2.435281954250348768e+00 -7.591285251670362721e-02 -5.192951757849497696e-01 3.419013870949432210e-01 -5.724071764244103022e-01 8.061657137286026842e-01 1.064353853300972208e+00 3.411724956887230986e-01 -9.133315844751254131e-01 -3.839974377978856990e-01 -1.092717494055561511e+00 -7.209320880904186435e-01 5.229918300366629413e-01 -1.169235483001195730e+00 -2.055595451807902818e-01 -1.167155242455055308e+00 2.017277761132710845e-01 -1.828978264879062010e+00 -4.570522468345696310e-01 5.143737838902400217e-01 -2.623206303807706696e+00 -7.052886800078647100e-01 -1.857751504054797831e+00 1.818499105987273490e-01 8.247168896228744828e-01 7.254146452556929914e-01 -7.959857588358674185e-01 1.836512343870901898e+00 -9.752171889938370253e-01 3.614541663476882327e+00 8.326977577173702016e-01 2.297234341016958781e-01 1.238617204318775145e-01 3.302840414199302854e-01 3.562518439967959916e-01 5.158189952424363511e-01 -1.799835072991204266e+00 -2.797706754340837515e-02 -1.813000407827989990e+00 -1.605916467020580482e-02 3.810667699701495437e+00 -6.576090441341598813e-01 3.124576709552845943e-01 -1.010244394047481009e+00 -1.439019555933930938e+00 -1.052356848326391425e+00 2.616075376231551397e-01 8.657717614286727370e-01 1.275441723699054786e-01 5.558068332172088066e-01 1.736963520669271066e+00 -2.196122459184036035e+00 -4.660546412978480713e-02 7.907819347917696140e-01 6.581657681116639402e-01 2.092892552950343266e+00 1.133418227121550492e+00 3.276389359962354753e-02 1.379294524011887901e+00 5.713746544730269328e-01 -1.802753081688848846e+00
-1.196484137543728732e+00 1.231976371091553002e+00 3.131560823251360315e-01 -3.357692788301404718e+00 1.004474615815104777e+00 1.456446274254352691e+00 1.913967847815982060e+00 -1.808380325556557366e+00 1.481829445887320906e+00 -9.506236967721668485e-01 -3.318586669075534457e-01 1.929646353344826260e+00 -7.730702276516321358e-01 1.882532753643232803e+00 4.124878809122500822e-01 -1.140431707074240020e+00 -2.025134381618276969e+00 -6.222632575821273049e-01 -8.274345234370095170e-01 4.698790556890912185e-01 4.019501385291178175e-01 1.493447866333143421e-02 2.714987733421419525e-01 -7.415170205461898423e-01 6.695543782954084255e-01 6.836560380134929504e-01 -4.292272279851614726e-03 -6.534299677118492466e-01 -9.116541347784641314e-01 -1.347713411742917922e-01 1.519995194067686461e-01 9.257185250534437637e-01 -4.422480264587043131e-01 -5.801931814768646056e-01 9.047362659064626944e-02 1.230964745880072986e+00 -9.397932614055272138e-01 2.355857392921466009e-01 2.651205111027373218e-01 -5.914527184204061427e-01 -1.444981289033748784e+00 9.031996730248427196e-01 -5.206737313632532338e-01 7.984006395057799965e-01 1.066097010909881959e+00 -2.086025549951470159e-01 -7.995374407332989097e-01 4.370893949168543902e-01 -1.575213640457821640e+00 -5.249223420839932430e-01 5.742568640796976709e-01 1.122966349449528334e+00 -1.043781232411738369e+00 -6.198709981180611228e-01 -7.509867525250863984e-01 -8.905122280776267552e-01 2.466657007691256953e-01 -3.864043313661794654e-01 -2.147575005205314413e-01 2.622981047920296405e-01 1.666536590045923472e+00 1.294211585471372050e-01 8.233091554709703885e-01 3.413222769166655013e-01 3.764945329546008912e-01 1.000422521071535398e+00 5.937527599469705208e-02 2.005678089181366808e+00 -1.633976348451457783e+00 2.681501605586994685e+00 4.541241864660895515e-03 7.936022333682485330e-02 -5.061409423586566980e-01 3.625440095399654616e-01 7.080852841057073688e-01 -2.408302456375359668e+00 7.948985213345036716e-01 -4.849073979372070520e-01 -3.741493698457971639e-01 2.348264732319376713e-01 1.317502300794662240e+00 1.533725925887822861e+00 4.088527080148882109e-02 2.485265550293008552e+00 -1.672028739893962390e+00 8.214403256649589480e-01 -1.196091604387718554e+00 -9.055181293276555188e-01 1.075451584993550203e+00 8.843577804634774608e-01 1.058364723501619142e+00 9.547250428753799589e-01 -6.345061513718798507e-02 9.479447871166105100e-02 -7.123020763880625328e-01 3.228044567911266816e-01 3.074436394176647269e-01 -3.078587724185696040e+00 2.967697716478066849e-02 8.054305616725487837e-01
1.177796139561456901e+00 -4.702396616537894980e-01 1.316811402225936956e+00 -1.343467586446104090e+00 1.361573436217708988e+00 1.620823411112585877e+00 5.989871915986095807e-01 -1.701246115159138483e-01 5.449852046286272067e-01 6.134543729246735855e-02 4.636622842251694188e-01 -2.129721121119453997e+00 -5.855230662122556939e-01 1.041586217648993618e+00 -1.092337392085008130e+00 1.415375329031642426e+00 -8.925507156726593117e-01 -3.179564935305316808e-01 -1.238280704798964571e+00 -2.492996870673800824e+00 1.009196760708864771e+00 -1.850105438402224634e+00 4.880142935896473189e-01 5.724874718754617842e-01 -1.192082647982734694e-01 -3.685852054412136480e-01 -1.519260268195069097e+00 1.964895312410504857e+00 1.700493114419284080e+00 -1.263418619331202919e+00 -1.688695307223414765e+00 4.338100818967434158e-01 -6.061111313029804437e-02 -6.864305349049457661e-01 -2.365306947630094192e-01 -1.008192100347391484e+00 -9.506405258115890877e-01 -6.461080940361751956e-01 1.398677767713422337e+00 1.547894074016506138e+00 1.130647279750644163e+00 1.932665602900559776e+00 -5.582388180712497677e-03 -1.211174403879865302e+00 5.694999793411483768e-01 -7.163540116742967978e-01 -2.668947832383703478e-01 4.836093480107848119e-01 -2.221910592695408582e+00 -6.969037281042261833e-01 -1.981728357634694238e+00 7.769956541871660960e-01 1.151142282538698769e+00 -1.434196061854858151e+00 -3.919098581339647280e-01 -2.040306492430584429e-01 -3.164663319069629943e-01 7.605850657324093600e-01 -6.374944020861741389e-01 2.228459162700247020e+00 -1.390041576865425343e-01 -2.076825297159714090e+00 4.067762620738523127e-01 -3.586346629157592947e-01 9.228614347840704557e-01 -1.377677701097474561e+00 3.811770981563564753e-01 1.397683021609597009e-01 7.384233211221049586e-01 1.153830314090195763e+00 -3.314325721435935901e-02 1.147968578472075674e+00 -1.157057775835733437e+00 -1.244309269045181382e-01 -4.221010804937873617e-01 -5.809746081690581043e-01 -4.353611295562234695e-02 1.873782429511695533e-02 -1.689150591774461585e+00 1.557190028539939819e-01 -2.219139202342892969e-01 1.566101780308814195e+00 -1.857670153161735449e+00 -1.130543308021178639e+00 -2.901582328443718106e-01 -7.112669351383844596e-01 -2.159446759335506449e+00 -1.224915859959603948e+00 -6.857419994944957686e-01 1.633218144428870144e-01 7.281194961972754509e-01 -4.765961570861269869e-02 1.792701731906531037e+00 -1.601001386920070768e+00 -4.559723059461145978e-01 2.186783917504935282e+00 1.454592324446423390e+00 -3.172429996195705870e-01 -1.114083565035229456e-01 -1.426712862784735636e+00
-1.791746441440958737e+00 1.594101210164489135e-01 6.617195732648020190e-01 1.096946784348772130e+00 1.555870794138660730e-02 5.541733381740737707e-01 2.026422195793482484e+00 6.872986558619761377e-01 -8.847625006483645915e-01 1.284875175331158914e+00 -4.605322813730274301e-01 -4.011455893022290997e-01 -9.457669785961919651e-01 4.066005715646964225e-01 4.631039757510777566e-01 -4.885101506644965452e-01 3.609930261992106981e-01 -1.056775719172585948e+00 -3.648319876257132277e-01 1.150432472117567162e+00 -3.459106939451526141e-01 -5.680966269157352588e-01 1.182059596807114144e+00 1.799462395318945696e+00 -3.363649682744331015e-02 -1.942380491801970477e-01 -1.900461703860713003e+00 1.051243720007746685e+00 -1.390261608826874440e+00 1.349975615618934199e+00 3.942819087132182765e-01 -1.357759603791409919e+00 -3.384269840662822437e-01 8.126774501890994262e-01 5.330516111200660490e-01 1.301683621561044113e+00 -4.274151452291147235e-01 9.924988534094607573e-01 -1.338280037400053413e+00 1.206555609221422465e+00 1.594350184117350744e-01 -9.332644733152843930e-01 -7.353519211404002665e-01 -2.120331292645400545e+00 -9.556391765603583499e-01 1.634859298170807662e+00 -1.329148859050990561e+00 9.780711108203394843e-01 7.443807231421503134e-01 8.367187926855385038e-02 -8.405848606915410359e-01 -5.343211452879996770e-01 -7.719422709332122157e-01 1.273842250854692271e+00 -1.411152650872566916e-01 1.860337332768878804e-01 -7.910178491966124437e-01 -3.608331654506399255e-01 2.469818316011297199e+00 7.451226617489565829e-01 5.853985412667773724e-01 6.758692754264201685e-01 -7.786459086812369534e-01 3.008471040433352783e+00 -1.110783622685751926e+00 7.338653169624649308e-01 2.045297886411187871e-01 -1.252339784538165635e-01 1.841755646278213643e+00 -1.290904702618771438e-01 8.473991383451668913e-01 2.091551690685570897e+00 -9.466084792245936796e-01 -1.016177452511386248e+00 3.438614770624168759e-01 -7.586856880825015859e-01 4.232005125010928070e-01 -3.516620887509037674e-01 -1.105039744518828693e+00 6.434763903974676236e-01 1.933589432493044047e+00 2.010772277942474151e-01 6.780937270915993187e-02 -1.182370166022080005e+00 -7.424681977189588888e-01 -6.543813388878210180e-01 5.183872918601866164e-01 1.356739301071964832e+00 1.390652226037586148e-01 4.611656495769483888e-01 8.219432434741305027e-01 1.292126756479080596e+00 -2.218921783753342591e-01 1.475568026514796349e+00 -5.669034791508285043e-01 8.164190223852689776e-01 -5.608088293966251303e-01 -5.745812588610201832e-01 -2.177534509607240487e+00 -3.320481864982710585e-01
3.858674672602460110e-01 5.977311119551985685e-01 -3.650804123325865902e-01 -5.170314948865510907e+00 -4.205979045282933204e-01 -2.603700192512150013e-01 4.886445725194890621e-01 5.387181091954724305e-02 -2.362920926675195765e-01 -5.952539279723144672e-01 5.013207415969327396e-01 -5.562029569098474457e-01 -2.909862938798226661e-01 -3.625798638738249591e-01 1.907284282855155333e-01 -7.490474989344864110e-01 6.065552222778759495e-01 -1.183066580608575613e+00 -4.101516602633591968e-01 7.605379622981598420e-01 -6.612387524361597047e-01 -8.893510121781164068e-01 8.990696885346304512e+00 1.081228040840219728e+00 2.710395411382942599e-01 -5.560044850421431706e-01 -4.715328361253553480e-01 -7.716268224043565382e-01 -3.301871733940688336e-01 2.555177815501071814e-01 1.818283080255688411e+00 8.491420204406671113e-01 1.407821676886421569e+00 4.672934853130514266e-02 9.482546467222013886e-01 -1.113095373250943654e+00 -4.052034179363125932e-01 -6.001618252525313668e-01 -1.060305477443184374e+00 6.446025027486954606e-01 -1.129329969116082133e-01 -1.053930895336058882e+00 -1.615901786545609786e+00 2.266086384073017213e-01 -1.482077992529437616e+00 1.042173356156345987e+00 -2.589887459226025146e-01 2.422282206528651560e+00 6.389720635409694705e-01 -2.281810133503744953e-01 -5.516254952777482901e-01 -1.646935786185176553e+00 -1.241338990755603167e+00 -1.431191152953658285e+00 -1.107819920083609411e+00 -3.026039299685393757e+00 7.907991773346667586e-01 -8.636753608173950436e-01 1.325183993083543621e+00 -1.052548520360802042e-01 1.642147395675319865e+00 -2.239992061113058874e-01 5.742142052777566841e-01 -2.435449193207073293e+01 2.445260470715197032e-01 -1.687591158081591658e+00 -2.203910840252950032e-01 -1.774725960916783973e-01 2.729647542584982545e-01 -9.499717404182194125e-01 -1.106931085667232750e+00 -7.792989169589497056e-01 -1.962601406673555093e+00 -2.241827488504272825e+00 -7.538846765681785078e-02 7.952917309355145292e-01 5.326498504308864179e-01 7.780296431665538748e-01 1.341333789846671065e+00 -1.320313074991420477e-01 -6.258296136679177835e-01 -1.019852827933404732e-01 1.899554809594594662e-01 1.128637728321335354e+00 -1.152444176448090829e+00 2.337421046770708166e+00 -2.897337436251476994e-01 -5.426251179027393734e-01 1.096645177939843153e-02 -2.944294134338147351e-01 -8.380080288669791710e-02 -1.281944878867624649e-01 2.671292857736890625e+01 8.475334873579740691e-01 5.291311762684764997e-01 1.273215444026698506e+00 1.913231618445852655e+00 1.137159902336359885e+00 7.441392052928211820e-01 -3.448515987086094720e-02
-1.290280332364408089e+00 -7.517567245904848150e-01 4.324764257862432904e-01 3.249797304554792987e+01 -6.223183468598040280e-01 -8.455413658785860820e-01 -1.404258780526128403e+00 1.500089308469722438e+00 -8.089802721476138103e-01 -3.465683494769741246e-01 9.580550720519680485e-01 6.480867078592486008e-01 6.536594676770308698e-01 -1.410780024616451023e+00 -9.060592095964068449e-01 2.288665366745550600e-01 2.175714437169066429e+00 6.290705624368548854e-01 1.328986356424319393e+00 4.153193828520174158e-01 -2.329025584074654986e+00 -1.480245788759163794e+00 -2.845996489843855670e+01 1.484141822510155195e-01 -1.719407161373287751e+00 -9.821711793054905826e-01 2.754615069751706335e-01 2.738685889604012935e+00 -1.025416857004704196e+00 1.117645258072752945e+00 -1.138872799719603535e+00 -1.618442485785153817e+00 9.357091904744221367e-01 -1.141930933677852922e+00 -9.681969490739579243e-01 2.634126925915218978e-02 1.984417427117356914e+00 7.215327760829707282e-01 2.921498560517579168e+00 -1.052640999291162491e-02 2.689737617294190919e+00 -1.945667415188104821e-01 1.777009198264875023e+00 -1.529561269097573506e+00 9.099547246716948035e-01 2.247921130025633540e-01 -1.831420186845901688e+00 2.419225318349728648e-01 1.532371835716369590e+00 1.373736547252578877e+00 2.152034444622333176e+00 -1.334545462844089592e+00 -1.241126922245552988e+00 -9.447022486738216873e-01 -5.198215048946578376e-01 -1.066924063900118735e-01 -4.997542819144062398e-01 -6.423669754424510270e-01 -7.885022947602028376e-01 -6.329755239439609493e-01 -1.243050551315000862e-01 1.280569839998772164e+00 -1.860680640774454053e+00 -1.881905067723267422e+01 -3.753374727600943039e+00 5.733016066716979386e-01 -2.986389783733779946e-01 -9.706055053949449452e-01 -2.061667474756659693e-02 -6.953267087613601571e-01 -1.283816851309622198e+00 2.984735273450949578e+00 -6.875089621015731955e-01 4.958356930225335524e-01 1.012851155210067411e+00 -2.514181010661815652e-01 1.389718302326528876e-01 4.752534695618969574e-01 -1.579584389830237079e+00 -1.009395834332624114e-01 1.555639729709108909e+00 -9.696548751921084675e-01 1.714489663601501235e+00 8.999084877173738617e-01 -2.656029294478868819e-01 -1.120658087392069957e+00 -2.668309764660629746e+00 -1.837122286969790519e+00 -1.309491515840338405e+00 7.086030914756181742e-01 -5.428027269432282864e-01 1.482622779480885056e+00 2.149742114599556686e+01 2.550661037028298384e-01 4.167498559396793367e-01 -8.341403940295535335e-01 2.722269545819985814e-01 -1.771282553861787401e-01 -8.839909897939018935e-02 7.821480061164266528e-01
9.509394318002928337e-01 -1.044472891329454534e+00 2.077337408527186735e+00 3.186176078017944491e+01 1.393714594730758094e+00 3.358320960488463958e-01 -6.286437418586593093e-03 -1.294988604346097638e+00 1.340810748457176071e+00 1.775625950299944522e+00 6.450004551712918976e-01 1.725127448403632524e+00 -2.083720207856574469e-01 -1.240734566729665422e+00 -8.537902471080957012e-01 -1.309386242765522956e+00 -6.734721414091184855e-01 1.207162496090408155e+00 -7.648528391541959959e-01 1.724941305536262515e-01 -7.095034508758006619e-02 1.021910957467332404e+00 -2.935271300413756634e+01 2.015865731274491812e-01 7.476753315197196548e-01 -2.658602325587225423e-02 -6.060351249778384020e-01 -2.415578030631882811e+00 -4.525480316784752932e-01 -6.152154774971143603e-01 5.292915464429850392e-01 -1.108627390968472515e+00 -2.209708497586278408e+00 4.132352020594118880e-01 -3.537666255037247853e-01 1.334541188733922912e+00 2.886758421983103284e-01 -3.326119880790042060e+00 -3.515536333123515433e+00 8.930358078048814541e-01 -8.254189321206594210e-01 2.507567583401839051e-01 -2.670628752766204261e-01 8.391446033746667865e-01 -1.339036212336476073e+00 -4.625403886851595647e-01 -5.924921689653375734e-02 2.794653479842608146e-01 3.588581779788658777e-01 3.366124468578352236e+00 4.858212412059198515e-01 -3.800725013491956794e-01 9.381757593526224293e-01 6.986016263781753555e-01 1.261087303083609834e+00 -2.815063904496811764e-01 1.042045770927480852e+00 2.389467260690423811e-01 -1.110931616504220593e-01 7.568143409083437634e-01 1.493349164126577477e+00 8.572717453085791917e-01 -2.577673007152879170e-01 -3.884188386383255676e+01 -1.402555228272778232e+00 6.483677781580904353e-01 -1.460634634142233601e+00 4.998182340972275872e-01 -4.173178003888833310e-01 -9.392398402038006910e-01 -7.300793596802604979e-01 -1.006602912503282432e-01 -4.509049089806027588e-01 -4.836265880647080961e-01 -1.567398588257863101e-01 2.079530775430827205e+00 -9.874457837151451312e-01 6.544168032903145971e-01 1.674304552934874069e-01 -5.277286109367700373e-01 7.945226955383151157e-01 6.932752760129270997e-02 1.302099015838213969e+00 1.727697503314715055e+00 6.113529486555719927e-01 -1.733566368339419239e-01 -2.009746408106655446e-01 -5.090199763144508394e-01 -8.732065768622038204e-01 -6.769913562555838205e-01 8.096337183696421524e-01 -2.672318323829336872e-01 3.646663162357292975e+01 -1.032493424311887315e-01 -8.251382324456394413e-01 -2.210122620094780110e+00 7.288249401889094203e-01 -1.001580407689383723e+00 -7.389113538149866267e-01 1.170212437411554118e+00
