# 
#                 ----------------------------------------------------
#                 Data from a 3D direct N-body simulation. 
# 
#                 rows are i-particle; 
#                 coumns are :mass, tag, x ,y, z, vx, vy, vz, ax, ay, az
# 
#                 NTHU, Computational Physics 
# 
#                 ----------------------------------------------------
#                 Time = 0.0
0.000000000000000000e+00 1.000000000000000000e+00 2.000000000000000000e+00 3.000000000000000000e+00 4.000000000000000000e+00 5.000000000000000000e+00 6.000000000000000000e+00 7.000000000000000000e+00 8.000000000000000000e+00 9.000000000000000000e+00 1.000000000000000000e+01 1.100000000000000000e+01 1.200000000000000000e+01 1.300000000000000000e+01 1.400000000000000000e+01 1.500000000000000000e+01 1.600000000000000000e+01 1.700000000000000000e+01 1.800000000000000000e+01 1.900000000000000000e+01 2.000000000000000000e+01 2.100000000000000000e+01 2.200000000000000000e+01 2.300000000000000000e+01 2.400000000000000000e+01 2.500000000000000000e+01 2.600000000000000000e+01 2.700000000000000000e+01 2.800000000000000000e+01 2.900000000000000000e+01 3.000000000000000000e+01 3.100000000000000000e+01 3.200000000000000000e+01 3.300000000000000000e+01 3.400000000000000000e+01 3.500000000000000000e+01 3.600000000000000000e+01 3.700000000000000000e+01 3.800000000000000000e+01 3.900000000000000000e+01 4.000000000000000000e+01 4.100000000000000000e+01 4.200000000000000000e+01 4.300000000000000000e+01 4.400000000000000000e+01 4.500000000000000000e+01 4.600000000000000000e+01 4.700000000000000000e+01 4.800000000000000000e+01 4.900000000000000000e+01 5.000000000000000000e+01 5.100000000000000000e+01 5.200000000000000000e+01 5.300000000000000000e+01 5.400000000000000000e+01 5.500000000000000000e+01 5.600000000000000000e+01 5.700000000000000000e+01 5.800000000000000000e+01 5.900000000000000000e+01 6.000000000000000000e+01 6.100000000000000000e+01 6.200000000000000000e+01 6.300000000000000000e+01 6.400000000000000000e+01 6.500000000000000000e+01 6.600000000000000000e+01 6.700000000000000000e+01 6.800000000000000000e+01 6.900000000000000000e+01 7.000000000000000000e+01 7.100000000000000000e+01 7.200000000000000000e+01 7.300000000000000000e+01 7.400000000000000000e+01 7.500000000000000000e+01 7.600000000000000000e+01 7.700000000000000000e+01 7.800000000000000000e+01 7.900000000000000000e+01 8.000000000000000000e+01 8.100000000000000000e+01 8.200000000000000000e+01 8.300000000000000000e+01 8.400000000000000000e+01 8.500000000000000000e+01 8.600000000000000000e+01 8.700000000000000000e+01 8.800000000000000000e+01 8.900000000000000000e+01 9.000000000000000000e+01 9.100000000000000000e+01 9.200000000000000000e+01 9.300000000000000000e+01 9.400000000000000000e+01 9.500000000000000000e+01 9.600000000000000000e+01 9.700000000000000000e+01 9.800000000000000000e+01 9.900000000000000000e+01
1.000000000000000056e-01 1.000000000000000056e-01 1.000000000000000056e-01 1.000000000000000056e-01 1.000000000000000056e-01 1.000000000000000056e-01 1.000000000000000056e-01 1.000000000000000056e-01 1.000000000000000056e-01 1.000000000000000056e-01 1.000000000000000056e-01 1.000000000000000056e-01 1.000000000000000056e-01 1.000000000000000056e-01 1.000000000000000056e-01 1.000000000000000056e-01 1.000000000000000056e-01 1.000000000000000056e-01 1.000000000000000056e-01 1.000000000000000056e-01 1.000000000000000056e-01 1.000000000000000056e-01 1.000000000000000056e-01 1.000000000000000056e-01 1.000000000000000056e-01 1.000000000000000056e-01 1.000000000000000056e-01 1.000000000000000056e-01 1.000000000000000056e-01 1.000000000000000056e-01 1.000000000000000056e-01 1.000000000000000056e-01 1.000000000000000056e-01 1.000000000000000056e-01 1.000000000000000056e-01 1.000000000000000056e-01 1.000000000000000056e-01 1.000000000000000056e-01 1.000000000000000056e-01 1.000000000000000056e-01 1.000000000000000056e-01 1.000000000000000056e-01 1.000000000000000056e-01 1.000000000000000056e-01 1.000000000000000056e-01 1.000000000000000056e-01 1.000000000000000056e-01 1.000000000000000056e-01 1.000000000000000056e-01 1.000000000000000056e-01 1.000000000000000056e-01 1.000000000000000056e-01 1.000000000000000056e-01 1.000000000000000056e-01 1.000000000000000056e-01 1.000000000000000056e-01 1.000000000000000056e-01 1.000000000000000056e-01 1.000000000000000056e-01 1.000000000000000056e-01 1.000000000000000056e-01 1.000000000000000056e-01 1.000000000000000056e-01 1.000000000000000056e-01 1.000000000000000056e-01 1.000000000000000056e-01 1.000000000000000056e-01 1.000000000000000056e-01 1.000000000000000056e-01 1.000000000000000056e-01 1.000000000000000056e-01 1.000000000000000056e-01 1.000000000000000056e-01 1.000000000000000056e-01 1.000000000000000056e-01 1.000000000000000056e-01 1.000000000000000056e-01 1.000000000000000056e-01 1.000000000000000056e-01 1.000000000000000056e-01 1.000000000000000056e-01 1.000000000000000056e-01 1.000000000000000056e-01 1.000000000000000056e-01 1.000000000000000056e-01 1.000000000000000056e-01 1.000000000000000056e-01 1.000000000000000056e-01 1.000000000000000056e-01 1.000000000000000056e-01 1.000000000000000056e-01 1.000000000000000056e-01 1.000000000000000056e-01 1.000000000000000056e-01 1.000000000000000056e-01 1.000000000000000056e-01 1.000000000000000056e-01 1.000000000000000056e-01 1.000000000000000056e-01 1.000000000000000056e-01
6.711303606656592313e-01 -6.311750312581320133e-01 1.582565478955644700e+00 -4.043152988828057071e-01 9.072144271186330933e-01 -1.461144043870024944e+00 2.082299693237251170e-01 -7.395573926766232375e-01 1.205164638467192573e+00 -1.193226916850350650e+00 -4.900664376703776637e-01 -1.953017898831081123e+00 7.563315241507593267e-01 3.050144666458067810e-01 -3.733334489716231275e-01 -5.553416187670362492e-02 1.362090110182911373e-01 5.919850323985519358e-01 -6.538982764059955155e-01 1.139944275406439722e+00 9.983121069688650762e-01 -1.024060543732404627e+00 -1.839716923255088898e-01 -8.141027149829226373e-01 -2.248129841710040377e+00 2.868914244578436579e-01 2.130283186115200511e+00 -1.004099359156407356e+00 3.660212082560644342e-01 3.949398417093887836e-01 3.573861768517925697e+00 1.391283239295298735e+00 -1.331828301467856968e-01 -1.473426991639752437e+00 -4.161999533817236641e-01 -1.933791511752190884e+00 2.295558855170323417e-02 1.384866922734625749e+00 2.844968032186138140e-01 2.040156468316668636e+00 1.277946503117669108e+00 -1.033498220393231248e+00 2.587535901945530736e-01 -1.382543091175932881e-01 1.755298354901668079e+00 -6.216115294427759785e-01 4.204414732497718798e-01 4.210608547336944785e-01 3.686199698445117301e-01 2.922239902792586053e-01 -6.445844375789953062e-01 1.513551806766590735e+00 -1.627034075558710491e+00 -9.649441621132739400e-01 7.607720595881934944e-01 -1.394909444153680789e-01 -9.002699008376784384e-01 -3.769444050136210311e-01 -2.591484070924517935e-01 5.845035944758805169e-01 -4.975690791267085855e-02 6.362919504293290673e-01 2.381735932805563838e+00 -2.046050646275855645e+00 6.940159754743795428e-01 1.291475424875013767e+00 2.480262999946221125e-01 -1.531440688091074975e-01 6.870548741851491004e-01 3.780157024597649573e-01 6.877236304617729834e-01 7.021580820956834224e-01 5.207675777078770718e-01 -3.363664325067790561e-01 -1.381452573474480361e-01 1.522252937398181905e+00 -5.875442196089386560e-01 -5.660812126459584537e-01 -4.643886061220878769e-01 5.461437754094047303e-01 8.674783072922052085e-01 -1.074036583157528923e+00 5.650276974299113242e-01 -1.779234127368675145e-01 8.077543613696179792e-01 1.476988787874704556e+00 -7.885681585065540400e-01 -1.111029279586196683e+00 4.723488022062325431e-01 -2.425325767074391625e-01 1.132930489007929753e-01 -2.194975202066552500e-01 1.962831191082026194e+00 -8.920312944686835666e-01 -1.073799344161447289e+00 8.458420890025841743e-01 1.314953105500568376e-01 -9.966350823240670564e-01 -1.126903643296964519e-01 1.332776222530486776e-01
-1.660371095054024249e+00 6.756777874945932849e-01 -1.182183034959805173e-01 9.637304894231788488e-01 -1.343941075942263995e-02 2.541674283799899570e-01 7.233323693359767770e-01 -2.046191881028058823e-01 8.727512941487098885e-01 -1.312716167298836778e+00 -5.287941616841995707e-01 -5.282632939898945779e-01 4.086513284005425239e-01 4.990885816525783003e-01 -2.806159818243357182e-02 -1.076677002359795798e+00 4.511938969837271385e-01 4.061669674291442655e-01 -2.639762945328274490e-01 -1.105095706297602121e+00 -5.607313813438371541e-01 -1.289115235137225257e+00 -7.313123160230905473e-02 -1.809454811334500368e+00 3.742904480670710132e-01 -2.822689366929983512e-01 7.146159107567420232e-01 -8.827823929179916540e-01 7.242598811873630915e-02 -9.213488542453269758e-01 -2.065982552870452960e+00 -1.859856316581533164e+00 -1.264543479228766643e+00 3.310589011952637106e-01 8.018275852782212887e-01 -5.215858858937114650e-01 -6.280719269304779750e-01 -1.994471172107439072e+00 -4.685467302232724229e-01 1.356309750818997517e-01 9.648639628641325627e-01 1.321060322275683596e+00 -1.577554434422914653e+00 1.602982643727381973e-01 1.513763601741355547e-01 1.365160434997350070e-01 -5.247431845930035088e-01 1.501856042494654320e+00 1.025073938320625877e-01 -1.658616852527481367e-01 3.213438530394658876e+00 1.451790953509377591e+00 -8.662483498411810423e-01 1.536698242996537012e+00 -5.407210030232616482e-01 1.212470790784395125e-01 -3.334013362754365550e-01 -5.235556202080144939e-01 8.531762756633112232e-01 1.024384129857519365e+00 -1.171516716164490712e-01 -8.023781569669901081e-01 -8.579074188541785384e-01 2.745824311457510714e+00 -1.780240133930551527e-01 -5.080901149986455367e-01 -7.425236139654060041e-01 -3.170204204000061088e-01 -1.979983104462976762e+00 -1.121574105390778175e+00 -1.069268882561863698e+00 -3.515784182467777685e-01 -7.069023670446550334e-02 -1.250866068730310254e-01 5.163704234322390452e-01 -2.366133061579419827e+00 -1.176290383923750404e+00 1.389051008873569693e+00 2.754116978078429590e+00 1.041677489840736603e+00 -1.519280226395523847e+00 8.321276375796635705e-01 9.916005152292008962e-01 5.324438669103373489e-02 -4.001320128619641203e-02 1.152218408343485434e+00 -1.832918338703814154e+00 4.495536291147452790e-01 -1.005779819676191789e+00 -1.524347636106140769e+00 -2.553547232065747283e-02 -6.503494176302435648e-01 -2.137822999444496386e-01 -2.047450762137934255e-01 -1.449672326184774096e-01 -2.120545379258360619e+00 -7.061362689185255448e-01 -2.432571557698333109e-01 2.099991489185366600e-01 2.290262769864755688e-01
1.241800994352716958e-01 -1.043383527654815124e+00 -4.951241522250358074e-01 -1.356774620745907267e+00 2.957587036278270035e-02 -1.473262452489152885e+00 -3.920749045601560345e-01 1.777332865152245756e+00 9.132072488486386863e-01 -6.134580139407835864e-01 6.043931389543595323e-01 -1.201918340587367906e-01 -1.480936226861407468e+00 -1.397180911388911984e+00 9.333394099580437642e-01 -4.544636180945665904e-01 1.518365491942259560e-01 8.006588761928583597e-01 -2.772781769548918751e-01 -1.559308141651930768e+00 1.021188206889885208e+00 1.490564481827593712e-01 5.696311289272821821e-01 -3.061797426716111881e-01 2.673158629688197063e-01 -1.689461834569833787e+00 -6.502850536107768198e-02 3.404871288413628960e-01 -4.066516649118709914e-01 -1.133118076387910289e+00 -8.295348549586225584e-01 1.878088704590185953e+00 -3.800647820758076834e-01 4.567985588988788814e-01 -6.815979865992392028e-01 -1.010650606702109711e+00 8.615710428711982338e-01 6.433714015031797295e-01 -9.315653876310854087e-04 -4.639877555155426658e-01 1.716398881535061705e-01 1.112778318701116292e-01 1.199327602297132200e-01 5.327904415744444400e-01 -9.070560145506799676e-01 -1.435175388368273297e-01 -1.049078021389039161e+00 -1.141041462962447128e-01 -7.885393280811933137e-01 8.927167982394901280e-01 -1.359722172161081932e+00 -1.248473227802816998e+00 1.446378667180450162e+00 -4.801761112161373468e-01 1.825678411066908202e+00 2.244704738921056431e-01 4.308953466582572944e-01 1.375835833228423954e+00 -1.265688676584618422e-01 1.395547566734182787e+00 -7.562966349599509197e-01 2.254156232310017827e-01 -3.759902556573200272e-01 -1.197146507061212922e-01 -3.008319100699287096e-01 8.725515817243002514e-01 8.363698700068875613e-01 4.402620142513452017e-01 -4.530363548096461024e-01 -1.392319462674493247e+00 -4.512171239668864853e-02 -1.942224909483428519e+00 1.870679271964167834e+00 -2.889314833032686769e-01 4.564081194731324786e-01 5.495512680115417492e-01 -1.377338078913057817e+00 -8.525791551651815681e-01 -3.151915792025455909e-01 -1.304208818073808285e+00 2.385746982373979919e-01 8.662050780604995115e-01 -7.256230126030922822e-02 6.014617035439627779e-01 -1.220652750187761315e+00 -1.692485070194610586e+00 1.763424270769407554e-01 2.159999301823813944e+00 7.819677273754211955e-01 -1.389748041644228715e+00 1.214132943736139780e-01 -1.824023340335000909e-01 1.247963255576731711e+00 -4.012460950594392006e-01 -1.792335777282945686e-01 4.812613960159449755e-01 -1.203673504705253805e+00 3.797616282668305754e-01 7.377480512837636395e-01 4.525717765605254961e-01
-1.537508839073224165e-01 -6.213486951470151842e-01 -1.246895225734795665e-01 8.412521032364633777e-02 1.403442998381259743e+00 5.459094133614135202e-01 1.107123023620059321e+00 -5.106582853771217678e-01 -5.529092799546908577e-01 2.720698348683699974e-01 1.443798457748943331e+00 -2.676192283978650055e-01 2.331952152756978647e-01 -3.162114626009964180e-01 -1.329190217322616885e+00 2.819346975942703670e-01 1.663687808865139672e+00 -9.425649177079327146e-01 -1.433742468456631780e+00 -2.761795314139561808e-01 -3.708440854980061818e-01 -6.202471768682523701e-01 7.901780059864447203e-01 6.843314245371576732e-01 -2.123477361594596491e-01 -1.057330060852001541e+00 5.076977914528827546e-02 -1.053081996209403876e-01 -4.594516696608272888e-01 -2.732059100022568909e+00 -3.276915838220453292e-01 -1.212213679387020293e-01 1.686821226453466771e+00 -1.539203205893723003e-01 2.326591600233085089e+00 1.191234117414919247e+00 -1.706937684665811084e+00 -9.063732094950007756e-01 -1.417419683591780721e+00 3.745486269361601728e-03 -1.628195735086996443e+00 5.620441419259605276e-01 8.538472887415037293e-01 -2.274501760439882336e-01 -2.898753497827394887e-01 1.298130909873223215e+00 7.246424394711763473e-01 2.811920674675149057e-01 6.305778793086558309e-01 -8.074748543745857710e-01 -2.515284923580664023e-01 1.132301777505234641e+00 8.092510866445672413e-01 6.134960294473867926e-01 -1.273550774313110256e+00 1.451760446248035130e+00 1.604114854171592164e+00 -1.026949648739066551e-01 1.279655912730065737e+00 -3.480804606632635911e-01 1.352434314243928348e+00 -5.331220286763653782e-01 -2.777553083509604614e-01 -6.338614358422745010e-01 -2.919043052114631553e+00 9.516424361497290985e-01 1.300558518249636530e-01 4.584646327630961804e-01 7.811901465230699504e-01 -5.915434010787641306e-01 -1.724535866670808160e+00 -8.205939460507215288e-02 8.329905242582905656e-01 -2.828293651519935281e-01 3.269975661363925257e-01 1.055382090960328423e+00 1.214500677612943003e+00 -7.787404662605508232e-01 -1.080032282847825514e-01 -1.195212764481167096e-02 1.497025145803453583e+00 3.805748794480410258e-01 1.803605359589730117e+00 -1.576046751259088552e+00 3.730140340116325781e-01 5.926023876711433713e-01 2.001172493842752420e+00 1.168888320035181699e-01 -4.310296058863428703e-01 -1.836512011604812589e+00 4.254810936742937227e-02 1.303391544645230438e+00 1.917591690434713669e+00 -2.320501982542061969e-01 -6.830965500823224512e-02 9.888744487362574609e-02 8.216833752461218943e-01 1.713110834404605765e+00 -1.803703250958729465e-01 1.006305595013257115e+00
-5.849406681898441374e-01 -4.095348034059658193e-01 3.445639329954705010e-01 -8.371825404025452499e-01 -1.743458116739332597e-01 1.244326020052892445e-01 1.312161429778146537e+00 -1.208191657167247302e+00 -2.949024413099490260e-01 1.458298705564418096e+00 -1.003333342119088201e+00 -9.291728046753298109e-01 -5.175275802352925503e-01 -5.280575912998601851e-01 -2.553870424587698640e+00 -4.491715979966623418e-01 2.312667358248073901e-01 -8.411661982567955054e-01 1.751160857943389493e+00 3.385952921325182663e-01 -2.930257741552331763e-01 2.096363378691577850e+00 -1.635751926113317101e+00 -1.258272341860839028e+00 -1.226967857183481225e+00 5.333668274869696191e-01 -1.373584522956712073e+00 1.336074225535449855e+00 -1.022709096505426407e-01 -1.949736328661290541e+00 -5.885444575483433222e-02 2.727905433866033569e-01 7.117819583536524330e-01 2.154247145346004366e+00 -1.829316046372885252e-01 -9.832998772748433591e-01 1.228808609602774382e+00 8.066521051398719555e-01 6.082629659284156665e-01 1.014620161126315256e+00 1.876780073297342533e+00 -2.330633964974129085e-02 6.792312554422939019e-01 1.749523642732378481e-01 -1.155315675405935494e+00 -2.050740045885752316e+00 4.508462315385253216e-01 -9.980588935319500976e-01 1.387309343425990882e+00 -1.457948412936942439e+00 1.661745693412944869e-01 7.987765197077263402e-01 2.019411097081758477e+00 -2.095294145431589428e+00 7.206474036152500651e-02 6.617685610747117697e-02 -1.216738378733021486e+00 3.627333145642075984e-01 3.990073808368738151e-01 -1.724444640645783622e-01 -4.137470333867309114e-01 -2.482441586038109937e-01 2.093862837957979062e-01 6.009452604674898613e-01 1.142683798082734903e+00 -1.231182051290172996e+00 6.777990384739172036e-01 -8.127519709246044943e-01 -2.188772786156018002e-01 -5.967299979032696378e-01 7.129448029585688795e-02 6.924841597012638683e-01 5.378545999927240029e-01 6.280557679769231960e-01 6.111132985624190272e-01 2.409421467104332915e-01 2.818732687353203356e-02 5.572790713806122231e-02 2.241044711853028559e+00 5.157991566634476110e-02 2.525966772091461365e+00 2.046979258928954826e-02 7.037662322810414040e-01 -8.222242946503770522e-01 6.854563531819032884e-02 -2.109043647803211241e-01 5.880104089775141096e-01 1.390060972889081981e-01 -7.829565596759728852e-01 -5.104959634886594433e-01 2.888559819347013002e-01 8.738950746824475369e-01 1.196180781506413382e+00 1.158399685896715381e+00 -2.382325403387988982e-01 -1.154769218092028149e+00 -3.451637203331353043e-01 -1.983324037123043837e+00 2.618617847330719783e+00 -1.345067858747047040e+00
1.876303622751329669e-01 -6.942753774809066192e-01 -4.491021907349477815e-01 -1.236493380802788367e-01 3.572057376521682315e-01 -2.024149631689702855e-01 1.365916808062995536e+00 9.320925703144866681e-01 -1.391486936011959274e+00 3.193472028231761350e-01 -9.074359957236360907e-02 -1.030018278240648621e+00 -3.297235401559785450e-01 1.595417773592789246e+00 -6.727019183142428638e-01 2.971443523269842402e+00 3.720525024774498646e-02 -2.311141997223992828e+00 8.232135090597454408e-01 -7.145141170435296285e-01 1.658968606781567656e+00 1.213962453924907869e+00 1.027578141807369665e-02 -1.182777418461644192e+00 8.656507285467189838e-01 9.613804697404729205e-02 -5.162418217547954935e-01 6.225175515863597964e-01 1.438629083377380269e+00 1.031647227308920001e-01 2.337005258716372547e-01 1.980758548412217435e+00 -6.783336538659201498e-01 2.401435742694100206e+00 -3.846386934401138102e-01 -1.351306445551561985e+00 -7.362213918962084991e-02 1.311349606683244184e+00 1.744650075040283244e-01 1.421912744167562193e-01 -1.025489722022650430e+00 -5.334806834391089270e-01 -8.482605533191187597e-01 5.816031743334745818e-02 -1.494064417809421175e-01 6.244011008689049902e-01 -1.754453603098800274e+00 5.112409400868536125e-01 2.332798483467273698e+00 -1.803246622837699320e+00 8.268915600046291559e-01 -2.625559066065428215e-01 1.620358175612645057e-01 -1.180963131026000479e-01 -1.571444883475702214e-01 -1.390145440685974343e+00 2.201552422264928532e-01 -9.502861544551972628e-01 -6.972880481028762567e-01 -6.626270218941401335e-01 1.561744411074397432e+00 -1.235724748889061031e+00 9.087063725302033101e-02 3.946117702289947959e-01 1.011409403059816192e+00 -9.977504737815956481e-01 1.237297209070853166e+00 9.394917193013174739e-01 -2.036304608935884719e+00 5.021387674237071108e-01 -8.443649417820738856e-01 1.815290537646935043e+00 -9.735886169767429266e-01 -1.579071044918615385e+00 -6.462613307274411856e-01 4.954548268060515737e-01 -3.790253993739420291e-02 8.464956498083932301e-02 2.920358065055569247e-02 1.565066419606767067e-01 1.572374617277417341e+00 -3.059311635208513680e-01 5.784260444504224496e-01 -8.871577582293068698e-01 4.999918288801877275e-01 -3.993277790486783330e-01 5.488867073036818311e-01 4.820646470388399440e-01 -1.422386320934517556e+00 -5.256183792835624757e-01 1.798250675063318288e-02 -3.475328457261173815e-02 4.727473404188271555e-01 3.649944493775396648e-01 1.356526996681902464e+00 3.913259975505783972e-01 6.636933225296220984e-01 2.453563795204313891e+00 5.828037214893697637e-01 -6.459912311724005929e-02
-3.490757484659669230e-02 1.357132337013798873e+00 -1.265291619760552821e+00 3.842607788143138081e-01 -2.292022436434433708e+00 1.057739166612788440e+00 -5.687036950442386773e-01 7.842837572506580202e-01 -1.202016718927989780e+00 1.376200313738600522e+00 1.588271400093489660e+00 1.690343570157623487e+00 -1.135641245813046041e+00 2.594398023649585605e-01 2.094669806716964011e+00 -4.808085856693262716e-01 -1.311231078396140504e+00 -1.613808202389794388e+00 9.533217264904167987e-01 -1.099487085188368241e+00 -8.184045534011524792e-01 1.427525286369988544e+00 1.615442403835315899e+00 7.862438417020584103e-01 1.448642729666199891e+00 3.459316954555822776e-01 -1.343529503203924502e+00 1.716541460371240779e+00 -8.903403787878371167e-01 -1.084387068548269495e+00 -5.162963932730859629e-01 -4.691951364629399768e-01 1.139324059160287117e+00 1.757023707902673593e+00 6.350888273662044226e-01 1.278851858122978857e+00 1.162154462603744554e+00 -9.686897495963295857e-01 -1.009910894832267259e+00 -1.812416178578562631e+00 -1.309398715671508340e+00 1.040380435400182879e+00 6.137059201143891807e-01 -2.591124922107610473e-01 -1.329729598218595044e+00 1.790396645336117754e+00 -1.102078848064758088e+00 -3.954122278166415927e-01 -7.949350689746402798e-01 -1.666769809352220744e+00 1.227015689666320214e-01 -8.010859883500904832e-01 1.051204909642195595e+00 1.029213297394578008e+00 -6.886694724579499605e-01 1.524229494488952730e+00 -9.682486207013140111e-01 6.728893657855929966e-01 7.821633621963401950e-01 -3.799652430683306825e-01 7.010757210959329688e-01 -1.475585314091593103e+00 -1.206945631840949273e+00 4.739976331795698883e-01 -1.978694118435684990e+00 -2.291275736163063570e+00 -1.352119201106193769e+00 1.848927912254283434e-01 -5.362991610776303153e-01 -4.494713667722818329e-01 -1.331362389255408063e+00 -8.075249065854036568e-01 -2.751061032921734983e-01 1.041682582813413666e-01 1.041523513038676851e+00 -1.032036824069265002e+00 1.106270902574673753e+00 4.731788179062629274e-01 9.933671220054171580e-02 -4.827006455621243863e-01 -2.180845745241914546e+00 1.102298945916454720e+00 -1.150833563530629711e+00 2.958630268926564888e+00 -1.410576349973272192e+00 -7.512764408456222842e-01 6.367165046398985950e-01 5.911165022482567366e-01 -1.118652653074944547e+00 2.528600295551243771e-01 -1.769567871945977533e+00 6.175089978089354226e-01 -1.264778149190247447e+00 2.521018791284187266e+00 3.354773336606657441e+00 -1.741531810131530522e-01 1.276873522288409335e+00 5.621087009830207037e+00 -5.608826745942276926e-01 -3.530972532633409600e+00
2.348569589035222283e+00 -4.578103765865945696e-01 3.178581963091182128e-01 -1.174568317117630434e+00 -4.998325199321768109e-01 -2.518633736717471039e-01 -1.744426005894998299e+00 -1.899438404163089969e-03 -1.035141016079817566e+00 9.981657721354693091e-01 1.978418171792753588e+00 3.525785610021813232e-01 -7.721929391124827680e-01 -8.527645759934083802e-01 -2.223659250492070472e-01 -6.215651845055580188e-02 -2.766012083852309011e+00 -1.320238608519467727e+00 1.290023239155730916e+00 8.301551084347467135e-01 4.975605698963090906e-01 1.539623612068417691e+00 7.075937657334613107e+00 1.714388361318245346e+00 -3.693258824855925049e-01 -4.398361792484650756e-02 -7.107958889906227373e-01 1.282462893402377402e+00 -7.872409357060611290e-01 1.499553795962647706e+00 2.772495240646499770e-01 6.047863077829422895e-01 3.520608440311534526e+00 -6.904757879616347793e-01 -1.320083177255090723e+00 2.448474181877793310e-01 1.111529604529508219e+00 5.174725685751411230e-01 1.179470885412521985e+00 -2.485006119189659413e-01 -1.191615803194203904e+00 -1.350950959789632311e+00 1.818744315234354092e+00 -6.344599145362360915e+00 -3.704737471912754043e-01 -1.854392394510453679e+00 -4.017809044505154387e-02 -2.096619774372376899e+00 -8.135290698956139099e-01 1.658941537326658056e-02 -6.675298617225551290e-01 -1.078844327441843998e+00 4.945607841290789453e-01 -1.447874940277014799e+00 5.225532434874171628e-01 -1.159975509619832090e+00 3.415037162007295901e+00 8.378672900046008065e-01 -2.209055207865598280e+00 -1.200713031163585853e+00 2.110755961536379954e-02 7.093971337541363775e-01 4.186933020136895944e-01 -5.847919849218521371e-01 4.232125957418301221e-01 1.440026986264745512e-01 1.699613364470272892e+00 2.936078461888004920e+00 1.687410991731548293e+00 1.903543625658785654e+00 1.294938076745868694e+00 2.071327118692695146e-01 -4.130131036854570170e-01 -1.112919261975099244e-01 -4.265148541981030661e+00 1.577160713182945262e+00 6.505918818461342568e-01 -1.679002972261035787e+00 -9.609857042018069562e-01 -1.496382096825766617e+00 6.538740587677533966e-01 -1.234317795409093144e+00 -1.736857458298288082e+00 -4.776849048113000484e-01 -5.238938030497281018e-02 -5.411058841671161357e-01 1.775904477921908864e+00 -4.151223218105467017e-01 2.113223536735305608e+00 1.572701949516138953e+00 5.207516334790388557e-01 1.524872434676383559e+00 -8.136992400335554820e-02 2.206204610335104066e-01 -3.701447493787302090e-01 1.727707244350917604e+00 4.247410382198826273e-01 -3.012088473098862629e+00 -4.046998553929664233e+00 -1.749729164604631126e+00
4.486541476304599652e-01 1.485329348080618672e+00 1.850421227690217107e-01 1.792965168006884324e+00 -4.464723574616949464e-01 1.072138075281873437e+00 9.962478670640607659e-01 -1.738863790971684864e+00 -9.383054558689185587e-01 8.065005929183119981e-01 -1.472538951369289473e+00 7.649446871794929326e-02 1.679532363547612928e+00 1.650119656815684177e+00 -3.735616268614110336e+00 1.566526989024857208e+00 8.032410514273669033e-01 -1.549008373514332959e+00 8.136097866051235084e-01 1.128207119018245219e+00 -1.648897719577668619e+00 -2.129648189778913236e-01 -5.753922146125214354e-01 6.256976985136489811e-01 -1.541578677071199222e-01 2.007189731845666181e+00 -1.703518880091355880e-01 -7.021808883847072691e-01 7.016446596254837242e-01 5.678618656684822907e-01 1.261109321539094497e-01 -8.156667432161897047e-01 -4.591561701402396833e-02 -5.626204857171288598e-01 7.175321705117841953e-01 7.534956517274185028e-01 -2.134878294134112231e+00 -6.787887494608892958e-01 3.655025196308061552e-01 3.823298378826754662e-02 -2.047889535794641391e-01 -3.900476757565549124e-01 -2.844073618819182303e-01 2.493077736193310745e+00 1.141032213922594130e+00 4.607311681241385015e-01 9.459302810774733450e-01 -3.331439885835540959e-02 1.813256167724834000e+00 -2.469461450176075878e+00 3.140177467585288928e-01 2.965903051212001595e-01 -9.041978796525281803e-01 2.708342085580565106e-01 -1.631971178111339293e+00 2.075162780799294282e+00 -2.726365343199979030e+00 -2.235746569739108125e+00 5.004372650380307930e-02 -1.315013731769042238e+00 1.879266468092052556e+00 -5.777233473686803622e-01 1.469087457608208303e-01 -1.674480741375067652e-02 7.987730696803698738e-01 -5.159072817987623294e-01 -1.577597682340058816e+00 7.514911684667337222e-02 7.905381608207034949e-01 2.212514251048210312e+00 7.915228802184418599e-01 1.989518885746913934e+00 -1.710598506012847464e+00 1.491798251237540507e+00 -1.006762371793878286e+00 -1.390737819864556746e-01 1.364664492954414943e+00 8.396238643976809968e-01 -1.747144921682211582e-02 1.058259898128188992e+00 -8.667228564054588746e-01 -1.070493605325142372e+00 -7.466866790283800681e-02 -5.200692412491881633e+00 1.257465339573039298e+00 1.095767817693099166e+00 -6.794640778808647141e-01 -1.123260788459210735e+00 -1.346322773059564382e+00 1.250364981418732979e+00 1.260799376338855193e+00 5.840616101210588385e-01 -7.834483895277163379e-01 2.714349226182653396e+00 -1.590345704778491423e-02 -5.669960529872457577e-01 1.839682756138482089e+00 8.265958833962343544e-01 -6.437253989242075036e+00 -9.759295584034886062e-01
