# 
#                 ----------------------------------------------------
#                 Data from a 3D direct N-body simulation. 
# 
#                 rows are i-particle; 
#                 coumns are :mass, tag, x ,y, z, vx, vy, vz, ax, ay, az
# 
#                 NTHU, Computational Physics 
# 
#                 ----------------------------------------------------
#                 Time = 0.0
0.000000000000000000e+00 1.000000000000000000e+00 2.000000000000000000e+00 3.000000000000000000e+00 4.000000000000000000e+00 5.000000000000000000e+00 6.000000000000000000e+00 7.000000000000000000e+00 8.000000000000000000e+00 9.000000000000000000e+00 1.000000000000000000e+01 1.100000000000000000e+01 1.200000000000000000e+01 1.300000000000000000e+01 1.400000000000000000e+01 1.500000000000000000e+01 1.600000000000000000e+01 1.700000000000000000e+01 1.800000000000000000e+01 1.900000000000000000e+01 2.000000000000000000e+01 2.100000000000000000e+01 2.200000000000000000e+01 2.300000000000000000e+01 2.400000000000000000e+01 2.500000000000000000e+01 2.600000000000000000e+01 2.700000000000000000e+01 2.800000000000000000e+01 2.900000000000000000e+01 3.000000000000000000e+01 3.100000000000000000e+01 3.200000000000000000e+01 3.300000000000000000e+01 3.400000000000000000e+01 3.500000000000000000e+01 3.600000000000000000e+01 3.700000000000000000e+01 3.800000000000000000e+01 3.900000000000000000e+01 4.000000000000000000e+01 4.100000000000000000e+01 4.200000000000000000e+01 4.300000000000000000e+01 4.400000000000000000e+01 4.500000000000000000e+01 4.600000000000000000e+01 4.700000000000000000e+01 4.800000000000000000e+01 4.900000000000000000e+01 5.000000000000000000e+01 5.100000000000000000e+01 5.200000000000000000e+01 5.300000000000000000e+01 5.400000000000000000e+01 5.500000000000000000e+01 5.600000000000000000e+01 5.700000000000000000e+01 5.800000000000000000e+01 5.900000000000000000e+01 6.000000000000000000e+01 6.100000000000000000e+01 6.200000000000000000e+01 6.300000000000000000e+01 6.400000000000000000e+01 6.500000000000000000e+01 6.600000000000000000e+01 6.700000000000000000e+01 6.800000000000000000e+01 6.900000000000000000e+01 7.000000000000000000e+01 7.100000000000000000e+01 7.200000000000000000e+01 7.300000000000000000e+01 7.400000000000000000e+01 7.500000000000000000e+01 7.600000000000000000e+01 7.700000000000000000e+01 7.800000000000000000e+01 7.900000000000000000e+01 8.000000000000000000e+01 8.100000000000000000e+01 8.200000000000000000e+01 8.300000000000000000e+01 8.400000000000000000e+01 8.500000000000000000e+01 8.600000000000000000e+01 8.700000000000000000e+01 8.800000000000000000e+01 8.900000000000000000e+01 9.000000000000000000e+01 9.100000000000000000e+01 9.200000000000000000e+01 9.300000000000000000e+01 9.400000000000000000e+01 9.500000000000000000e+01 9.600000000000000000e+01 9.700000000000000000e+01 9.800000000000000000e+01 9.900000000000000000e+01 1.000000000000000000e+02 1.010000000000000000e+02 1.020000000000000000e+02 1.030000000000000000e+02 1.040000000000000000e+02 1.050000000000000000e+02 1.060000000000000000e+02 1.070000000000000000e+02 1.080000000000000000e+02 1.090000000000000000e+02 1.100000000000000000e+02 1.110000000000000000e+02 1.120000000000000000e+02 1.130000000000000000e+02 1.140000000000000000e+02 1.150000000000000000e+02 1.160000000000000000e+02 1.170000000000000000e+02 1.180000000000000000e+02 1.190000000000000000e+02 1.200000000000000000e+02 1.210000000000000000e+02 1.220000000000000000e+02 1.230000000000000000e+02 1.240000000000000000e+02 1.250000000000000000e+02 1.260000000000000000e+02 1.270000000000000000e+02 1.280000000000000000e+02 1.290000000000000000e+02 1.300000000000000000e+02 1.310000000000000000e+02 1.320000000000000000e+02 1.330000000000000000e+02 1.340000000000000000e+02 1.350000000000000000e+02 1.360000000000000000e+02 1.370000000000000000e+02 1.380000000000000000e+02 1.390000000000000000e+02 1.400000000000000000e+02 1.410000000000000000e+02 1.420000000000000000e+02 1.430000000000000000e+02 1.440000000000000000e+02 1.450000000000000000e+02 1.460000000000000000e+02 1.470000000000000000e+02 1.480000000000000000e+02 1.490000000000000000e+02 1.500000000000000000e+02 1.510000000000000000e+02 1.520000000000000000e+02 1.530000000000000000e+02 1.540000000000000000e+02 1.550000000000000000e+02 1.560000000000000000e+02 1.570000000000000000e+02 1.580000000000000000e+02 1.590000000000000000e+02 1.600000000000000000e+02 1.610000000000000000e+02 1.620000000000000000e+02 1.630000000000000000e+02 1.640000000000000000e+02 1.650000000000000000e+02 1.660000000000000000e+02 1.670000000000000000e+02 1.680000000000000000e+02 1.690000000000000000e+02 1.700000000000000000e+02 1.710000000000000000e+02 1.720000000000000000e+02 1.730000000000000000e+02 1.740000000000000000e+02 1.750000000000000000e+02 1.760000000000000000e+02 1.770000000000000000e+02 1.780000000000000000e+02 1.790000000000000000e+02 1.800000000000000000e+02 1.810000000000000000e+02 1.820000000000000000e+02 1.830000000000000000e+02 1.840000000000000000e+02 1.850000000000000000e+02 1.860000000000000000e+02 1.870000000000000000e+02 1.880000000000000000e+02 1.890000000000000000e+02 1.900000000000000000e+02 1.910000000000000000e+02 1.920000000000000000e+02 1.930000000000000000e+02 1.940000000000000000e+02 1.950000000000000000e+02 1.960000000000000000e+02 1.970000000000000000e+02 1.980000000000000000e+02 1.990000000000000000e+02 2.000000000000000000e+02 2.010000000000000000e+02 2.020000000000000000e+02 2.030000000000000000e+02 2.040000000000000000e+02 2.050000000000000000e+02 2.060000000000000000e+02 2.070000000000000000e+02 2.080000000000000000e+02 2.090000000000000000e+02 2.100000000000000000e+02 2.110000000000000000e+02 2.120000000000000000e+02 2.130000000000000000e+02 2.140000000000000000e+02 2.150000000000000000e+02 2.160000000000000000e+02 2.170000000000000000e+02 2.180000000000000000e+02 2.190000000000000000e+02 2.200000000000000000e+02 2.210000000000000000e+02 2.220000000000000000e+02 2.230000000000000000e+02 2.240000000000000000e+02 2.250000000000000000e+02 2.260000000000000000e+02 2.270000000000000000e+02 2.280000000000000000e+02 2.290000000000000000e+02 2.300000000000000000e+02 2.310000000000000000e+02 2.320000000000000000e+02 2.330000000000000000e+02 2.340000000000000000e+02 2.350000000000000000e+02 2.360000000000000000e+02 2.370000000000000000e+02 2.380000000000000000e+02 2.390000000000000000e+02 2.400000000000000000e+02 2.410000000000000000e+02 2.420000000000000000e+02 2.430000000000000000e+02 2.440000000000000000e+02 2.450000000000000000e+02 2.460000000000000000e+02 2.470000000000000000e+02 2.480000000000000000e+02 2.490000000000000000e+02 2.500000000000000000e+02 2.510000000000000000e+02 2.520000000000000000e+02 2.530000000000000000e+02 2.540000000000000000e+02 2.550000000000000000e+02 2.560000000000000000e+02 2.570000000000000000e+02 2.580000000000000000e+02 2.590000000000000000e+02 2.600000000000000000e+02 2.610000000000000000e+02 2.620000000000000000e+02 2.630000000000000000e+02 2.640000000000000000e+02 2.650000000000000000e+02 2.660000000000000000e+02 2.670000000000000000e+02 2.680000000000000000e+02 2.690000000000000000e+02 2.700000000000000000e+02 2.710000000000000000e+02 2.720000000000000000e+02 2.730000000000000000e+02 2.740000000000000000e+02 2.750000000000000000e+02 2.760000000000000000e+02 2.770000000000000000e+02 2.780000000000000000e+02 2.790000000000000000e+02 2.800000000000000000e+02 2.810000000000000000e+02 2.820000000000000000e+02 2.830000000000000000e+02 2.840000000000000000e+02 2.850000000000000000e+02 2.860000000000000000e+02 2.870000000000000000e+02 2.880000000000000000e+02 2.890000000000000000e+02 2.900000000000000000e+02 2.910000000000000000e+02 2.920000000000000000e+02 2.930000000000000000e+02 2.940000000000000000e+02 2.950000000000000000e+02 2.960000000000000000e+02 2.970000000000000000e+02 2.980000000000000000e+02 2.990000000000000000e+02 3.000000000000000000e+02 3.010000000000000000e+02 3.020000000000000000e+02 3.030000000000000000e+02 3.040000000000000000e+02 3.050000000000000000e+02 3.060000000000000000e+02 3.070000000000000000e+02 3.080000000000000000e+02 3.090000000000000000e+02 3.100000000000000000e+02 3.110000000000000000e+02 3.120000000000000000e+02 3.130000000000000000e+02 3.140000000000000000e+02 3.150000000000000000e+02 3.160000000000000000e+02 3.170000000000000000e+02 3.180000000000000000e+02 3.190000000000000000e+02 3.200000000000000000e+02 3.210000000000000000e+02 3.220000000000000000e+02 3.230000000000000000e+02 3.240000000000000000e+02 3.250000000000000000e+02 3.260000000000000000e+02 3.270000000000000000e+02 3.280000000000000000e+02 3.290000000000000000e+02 3.300000000000000000e+02 3.310000000000000000e+02 3.320000000000000000e+02 3.330000000000000000e+02 3.340000000000000000e+02 3.350000000000000000e+02 3.360000000000000000e+02 3.370000000000000000e+02 3.380000000000000000e+02 3.390000000000000000e+02 3.400000000000000000e+02 3.410000000000000000e+02 3.420000000000000000e+02 3.430000000000000000e+02 3.440000000000000000e+02 3.450000000000000000e+02 3.460000000000000000e+02 3.470000000000000000e+02 3.480000000000000000e+02 3.490000000000000000e+02 3.500000000000000000e+02 3.510000000000000000e+02 3.520000000000000000e+02 3.530000000000000000e+02 3.540000000000000000e+02 3.550000000000000000e+02 3.560000000000000000e+02 3.570000000000000000e+02 3.580000000000000000e+02 3.590000000000000000e+02 3.600000000000000000e+02 3.610000000000000000e+02 3.620000000000000000e+02 3.630000000000000000e+02 3.640000000000000000e+02 3.650000000000000000e+02 3.660000000000000000e+02 3.670000000000000000e+02 3.680000000000000000e+02 3.690000000000000000e+02 3.700000000000000000e+02 3.710000000000000000e+02 3.720000000000000000e+02 3.730000000000000000e+02 3.740000000000000000e+02 3.750000000000000000e+02 3.760000000000000000e+02 3.770000000000000000e+02 3.780000000000000000e+02 3.790000000000000000e+02 3.800000000000000000e+02 3.810000000000000000e+02 3.820000000000000000e+02 3.830000000000000000e+02 3.840000000000000000e+02 3.850000000000000000e+02 3.860000000000000000e+02 3.870000000000000000e+02 3.880000000000000000e+02 3.890000000000000000e+02 3.900000000000000000e+02 3.910000000000000000e+02 3.920000000000000000e+02 3.930000000000000000e+02 3.940000000000000000e+02 3.950000000000000000e+02 3.960000000000000000e+02 3.970000000000000000e+02 3.980000000000000000e+02 3.990000000000000000e+02 4.000000000000000000e+02 4.010000000000000000e+02 4.020000000000000000e+02 4.030000000000000000e+02 4.040000000000000000e+02 4.050000000000000000e+02 4.060000000000000000e+02 4.070000000000000000e+02 4.080000000000000000e+02 4.090000000000000000e+02 4.100000000000000000e+02 4.110000000000000000e+02 4.120000000000000000e+02 4.130000000000000000e+02 4.140000000000000000e+02 4.150000000000000000e+02 4.160000000000000000e+02 4.170000000000000000e+02 4.180000000000000000e+02 4.190000000000000000e+02 4.200000000000000000e+02 4.210000000000000000e+02 4.220000000000000000e+02 4.230000000000000000e+02 4.240000000000000000e+02 4.250000000000000000e+02 4.260000000000000000e+02 4.270000000000000000e+02 4.280000000000000000e+02 4.290000000000000000e+02 4.300000000000000000e+02 4.310000000000000000e+02 4.320000000000000000e+02 4.330000000000000000e+02 4.340000000000000000e+02 4.350000000000000000e+02 4.360000000000000000e+02 4.370000000000000000e+02 4.380000000000000000e+02 4.390000000000000000e+02 4.400000000000000000e+02 4.410000000000000000e+02 4.420000000000000000e+02 4.430000000000000000e+02 4.440000000000000000e+02 4.450000000000000000e+02 4.460000000000000000e+02 4.470000000000000000e+02 4.480000000000000000e+02 4.490000000000000000e+02 4.500000000000000000e+02 4.510000000000000000e+02 4.520000000000000000e+02 4.530000000000000000e+02 4.540000000000000000e+02 4.550000000000000000e+02 4.560000000000000000e+02 4.570000000000000000e+02 4.580000000000000000e+02 4.590000000000000000e+02 4.600000000000000000e+02 4.610000000000000000e+02 4.620000000000000000e+02 4.630000000000000000e+02 4.640000000000000000e+02 4.650000000000000000e+02 4.660000000000000000e+02 4.670000000000000000e+02 4.680000000000000000e+02 4.690000000000000000e+02 4.700000000000000000e+02 4.710000000000000000e+02 4.720000000000000000e+02 4.730000000000000000e+02 4.740000000000000000e+02 4.750000000000000000e+02 4.760000000000000000e+02 4.770000000000000000e+02 4.780000000000000000e+02 4.790000000000000000e+02 4.800000000000000000e+02 4.810000000000000000e+02 4.820000000000000000e+02 4.830000000000000000e+02 4.840000000000000000e+02 4.850000000000000000e+02 4.860000000000000000e+02 4.870000000000000000e+02 4.880000000000000000e+02 4.890000000000000000e+02 4.900000000000000000e+02 4.910000000000000000e+02 4.920000000000000000e+02 4.930000000000000000e+02 4.940000000000000000e+02 4.950000000000000000e+02 4.960000000000000000e+02 4.970000000000000000e+02 4.980000000000000000e+02 4.990000000000000000e+02 5.000000000000000000e+02 5.010000000000000000e+02 5.020000000000000000e+02 5.030000000000000000e+02 5.040000000000000000e+02 5.050000000000000000e+02 5.060000000000000000e+02 5.070000000000000000e+02 5.080000000000000000e+02 5.090000000000000000e+02 5.100000000000000000e+02 5.110000000000000000e+02 5.120000000000000000e+02 5.130000000000000000e+02 5.140000000000000000e+02 5.150000000000000000e+02 5.160000000000000000e+02 5.170000000000000000e+02 5.180000000000000000e+02 5.190000000000000000e+02 5.200000000000000000e+02 5.210000000000000000e+02 5.220000000000000000e+02 5.230000000000000000e+02 5.240000000000000000e+02 5.250000000000000000e+02 5.260000000000000000e+02 5.270000000000000000e+02 5.280000000000000000e+02 5.290000000000000000e+02 5.300000000000000000e+02 5.310000000000000000e+02 5.320000000000000000e+02 5.330000000000000000e+02 5.340000000000000000e+02 5.350000000000000000e+02 5.360000000000000000e+02 5.370000000000000000e+02 5.380000000000000000e+02 5.390000000000000000e+02 5.400000000000000000e+02 5.410000000000000000e+02 5.420000000000000000e+02 5.430000000000000000e+02 5.440000000000000000e+02 5.450000000000000000e+02 5.460000000000000000e+02 5.470000000000000000e+02 5.480000000000000000e+02 5.490000000000000000e+02 5.500000000000000000e+02 5.510000000000000000e+02 5.520000000000000000e+02 5.530000000000000000e+02 5.540000000000000000e+02 5.550000000000000000e+02 5.560000000000000000e+02 5.570000000000000000e+02 5.580000000000000000e+02 5.590000000000000000e+02 5.600000000000000000e+02 5.610000000000000000e+02 5.620000000000000000e+02 5.630000000000000000e+02 5.640000000000000000e+02 5.650000000000000000e+02 5.660000000000000000e+02 5.670000000000000000e+02 5.680000000000000000e+02 5.690000000000000000e+02 5.700000000000000000e+02 5.710000000000000000e+02 5.720000000000000000e+02 5.730000000000000000e+02 5.740000000000000000e+02 5.750000000000000000e+02 5.760000000000000000e+02 5.770000000000000000e+02 5.780000000000000000e+02 5.790000000000000000e+02 5.800000000000000000e+02 5.810000000000000000e+02 5.820000000000000000e+02 5.830000000000000000e+02 5.840000000000000000e+02 5.850000000000000000e+02 5.860000000000000000e+02 5.870000000000000000e+02 5.880000000000000000e+02 5.890000000000000000e+02 5.900000000000000000e+02 5.910000000000000000e+02 5.920000000000000000e+02 5.930000000000000000e+02 5.940000000000000000e+02 5.950000000000000000e+02 5.960000000000000000e+02 5.970000000000000000e+02 5.980000000000000000e+02 5.990000000000000000e+02 6.000000000000000000e+02 6.010000000000000000e+02 6.020000000000000000e+02 6.030000000000000000e+02 6.040000000000000000e+02 6.050000000000000000e+02 6.060000000000000000e+02 6.070000000000000000e+02 6.080000000000000000e+02 6.090000000000000000e+02 6.100000000000000000e+02 6.110000000000000000e+02 6.120000000000000000e+02 6.130000000000000000e+02 6.140000000000000000e+02 6.150000000000000000e+02 6.160000000000000000e+02 6.170000000000000000e+02 6.180000000000000000e+02 6.190000000000000000e+02 6.200000000000000000e+02 6.210000000000000000e+02 6.220000000000000000e+02 6.230000000000000000e+02 6.240000000000000000e+02 6.250000000000000000e+02 6.260000000000000000e+02 6.270000000000000000e+02 6.280000000000000000e+02 6.290000000000000000e+02 6.300000000000000000e+02 6.310000000000000000e+02 6.320000000000000000e+02 6.330000000000000000e+02 6.340000000000000000e+02 6.350000000000000000e+02 6.360000000000000000e+02 6.370000000000000000e+02 6.380000000000000000e+02 6.390000000000000000e+02 6.400000000000000000e+02 6.410000000000000000e+02 6.420000000000000000e+02 6.430000000000000000e+02 6.440000000000000000e+02 6.450000000000000000e+02 6.460000000000000000e+02 6.470000000000000000e+02 6.480000000000000000e+02 6.490000000000000000e+02 6.500000000000000000e+02 6.510000000000000000e+02 6.520000000000000000e+02 6.530000000000000000e+02 6.540000000000000000e+02 6.550000000000000000e+02 6.560000000000000000e+02 6.570000000000000000e+02 6.580000000000000000e+02 6.590000000000000000e+02 6.600000000000000000e+02 6.610000000000000000e+02 6.620000000000000000e+02 6.630000000000000000e+02 6.640000000000000000e+02 6.650000000000000000e+02 6.660000000000000000e+02 6.670000000000000000e+02 6.680000000000000000e+02 6.690000000000000000e+02 6.700000000000000000e+02 6.710000000000000000e+02 6.720000000000000000e+02 6.730000000000000000e+02 6.740000000000000000e+02 6.750000000000000000e+02 6.760000000000000000e+02 6.770000000000000000e+02 6.780000000000000000e+02 6.790000000000000000e+02 6.800000000000000000e+02 6.810000000000000000e+02 6.820000000000000000e+02 6.830000000000000000e+02 6.840000000000000000e+02 6.850000000000000000e+02 6.860000000000000000e+02 6.870000000000000000e+02 6.880000000000000000e+02 6.890000000000000000e+02 6.900000000000000000e+02 6.910000000000000000e+02 6.920000000000000000e+02 6.930000000000000000e+02 6.940000000000000000e+02 6.950000000000000000e+02 6.960000000000000000e+02 6.970000000000000000e+02 6.980000000000000000e+02 6.990000000000000000e+02 7.000000000000000000e+02 7.010000000000000000e+02 7.020000000000000000e+02 7.030000000000000000e+02 7.040000000000000000e+02 7.050000000000000000e+02 7.060000000000000000e+02 7.070000000000000000e+02 7.080000000000000000e+02 7.090000000000000000e+02 7.100000000000000000e+02 7.110000000000000000e+02 7.120000000000000000e+02 7.130000000000000000e+02 7.140000000000000000e+02 7.150000000000000000e+02 7.160000000000000000e+02 7.170000000000000000e+02 7.180000000000000000e+02 7.190000000000000000e+02 7.200000000000000000e+02 7.210000000000000000e+02 7.220000000000000000e+02 7.230000000000000000e+02 7.240000000000000000e+02 7.250000000000000000e+02 7.260000000000000000e+02 7.270000000000000000e+02 7.280000000000000000e+02 7.290000000000000000e+02 7.300000000000000000e+02 7.310000000000000000e+02 7.320000000000000000e+02 7.330000000000000000e+02 7.340000000000000000e+02 7.350000000000000000e+02 7.360000000000000000e+02 7.370000000000000000e+02 7.380000000000000000e+02 7.390000000000000000e+02 7.400000000000000000e+02 7.410000000000000000e+02 7.420000000000000000e+02 7.430000000000000000e+02 7.440000000000000000e+02 7.450000000000000000e+02 7.460000000000000000e+02 7.470000000000000000e+02 7.480000000000000000e+02 7.490000000000000000e+02 7.500000000000000000e+02 7.510000000000000000e+02 7.520000000000000000e+02 7.530000000000000000e+02 7.540000000000000000e+02 7.550000000000000000e+02 7.560000000000000000e+02 7.570000000000000000e+02 7.580000000000000000e+02 7.590000000000000000e+02 7.600000000000000000e+02 7.610000000000000000e+02 7.620000000000000000e+02 7.630000000000000000e+02 7.640000000000000000e+02 7.650000000000000000e+02 7.660000000000000000e+02 7.670000000000000000e+02 7.680000000000000000e+02 7.690000000000000000e+02 7.700000000000000000e+02 7.710000000000000000e+02 7.720000000000000000e+02 7.730000000000000000e+02 7.740000000000000000e+02 7.750000000000000000e+02 7.760000000000000000e+02 7.770000000000000000e+02 7.780000000000000000e+02 7.790000000000000000e+02 7.800000000000000000e+02 7.810000000000000000e+02 7.820000000000000000e+02 7.830000000000000000e+02 7.840000000000000000e+02 7.850000000000000000e+02 7.860000000000000000e+02 7.870000000000000000e+02 7.880000000000000000e+02 7.890000000000000000e+02 7.900000000000000000e+02 7.910000000000000000e+02 7.920000000000000000e+02 7.930000000000000000e+02 7.940000000000000000e+02 7.950000000000000000e+02 7.960000000000000000e+02 7.970000000000000000e+02 7.980000000000000000e+02 7.990000000000000000e+02 8.000000000000000000e+02 8.010000000000000000e+02 8.020000000000000000e+02 8.030000000000000000e+02 8.040000000000000000e+02 8.050000000000000000e+02 8.060000000000000000e+02 8.070000000000000000e+02 8.080000000000000000e+02 8.090000000000000000e+02 8.100000000000000000e+02 8.110000000000000000e+02 8.120000000000000000e+02 8.130000000000000000e+02 8.140000000000000000e+02 8.150000000000000000e+02 8.160000000000000000e+02 8.170000000000000000e+02 8.180000000000000000e+02 8.190000000000000000e+02 8.200000000000000000e+02 8.210000000000000000e+02 8.220000000000000000e+02 8.230000000000000000e+02 8.240000000000000000e+02 8.250000000000000000e+02 8.260000000000000000e+02 8.270000000000000000e+02 8.280000000000000000e+02 8.290000000000000000e+02 8.300000000000000000e+02 8.310000000000000000e+02 8.320000000000000000e+02 8.330000000000000000e+02 8.340000000000000000e+02 8.350000000000000000e+02 8.360000000000000000e+02 8.370000000000000000e+02 8.380000000000000000e+02 8.390000000000000000e+02 8.400000000000000000e+02 8.410000000000000000e+02 8.420000000000000000e+02 8.430000000000000000e+02 8.440000000000000000e+02 8.450000000000000000e+02 8.460000000000000000e+02 8.470000000000000000e+02 8.480000000000000000e+02 8.490000000000000000e+02 8.500000000000000000e+02 8.510000000000000000e+02 8.520000000000000000e+02 8.530000000000000000e+02 8.540000000000000000e+02 8.550000000000000000e+02 8.560000000000000000e+02 8.570000000000000000e+02 8.580000000000000000e+02 8.590000000000000000e+02 8.600000000000000000e+02 8.610000000000000000e+02 8.620000000000000000e+02 8.630000000000000000e+02 8.640000000000000000e+02 8.650000000000000000e+02 8.660000000000000000e+02 8.670000000000000000e+02 8.680000000000000000e+02 8.690000000000000000e+02 8.700000000000000000e+02 8.710000000000000000e+02 8.720000000000000000e+02 8.730000000000000000e+02 8.740000000000000000e+02 8.750000000000000000e+02 8.760000000000000000e+02 8.770000000000000000e+02 8.780000000000000000e+02 8.790000000000000000e+02 8.800000000000000000e+02 8.810000000000000000e+02 8.820000000000000000e+02 8.830000000000000000e+02 8.840000000000000000e+02 8.850000000000000000e+02 8.860000000000000000e+02 8.870000000000000000e+02 8.880000000000000000e+02 8.890000000000000000e+02 8.900000000000000000e+02 8.910000000000000000e+02 8.920000000000000000e+02 8.930000000000000000e+02 8.940000000000000000e+02 8.950000000000000000e+02 8.960000000000000000e+02 8.970000000000000000e+02 8.980000000000000000e+02 8.990000000000000000e+02 9.000000000000000000e+02 9.010000000000000000e+02 9.020000000000000000e+02 9.030000000000000000e+02 9.040000000000000000e+02 9.050000000000000000e+02 9.060000000000000000e+02 9.070000000000000000e+02 9.080000000000000000e+02 9.090000000000000000e+02 9.100000000000000000e+02 9.110000000000000000e+02 9.120000000000000000e+02 9.130000000000000000e+02 9.140000000000000000e+02 9.150000000000000000e+02 9.160000000000000000e+02 9.170000000000000000e+02 9.180000000000000000e+02 9.190000000000000000e+02 9.200000000000000000e+02 9.210000000000000000e+02 9.220000000000000000e+02 9.230000000000000000e+02 9.240000000000000000e+02 9.250000000000000000e+02 9.260000000000000000e+02 9.270000000000000000e+02 9.280000000000000000e+02 9.290000000000000000e+02 9.300000000000000000e+02 9.310000000000000000e+02 9.320000000000000000e+02 9.330000000000000000e+02 9.340000000000000000e+02 9.350000000000000000e+02 9.360000000000000000e+02 9.370000000000000000e+02 9.380000000000000000e+02 9.390000000000000000e+02 9.400000000000000000e+02 9.410000000000000000e+02 9.420000000000000000e+02 9.430000000000000000e+02 9.440000000000000000e+02 9.450000000000000000e+02 9.460000000000000000e+02 9.470000000000000000e+02 9.480000000000000000e+02 9.490000000000000000e+02 9.500000000000000000e+02 9.510000000000000000e+02 9.520000000000000000e+02 9.530000000000000000e+02 9.540000000000000000e+02 9.550000000000000000e+02 9.560000000000000000e+02 9.570000000000000000e+02 9.580000000000000000e+02 9.590000000000000000e+02 9.600000000000000000e+02 9.610000000000000000e+02 9.620000000000000000e+02 9.630000000000000000e+02 9.640000000000000000e+02 9.650000000000000000e+02 9.660000000000000000e+02 9.670000000000000000e+02 9.680000000000000000e+02 9.690000000000000000e+02 9.700000000000000000e+02 9.710000000000000000e+02 9.720000000000000000e+02 9.730000000000000000e+02 9.740000000000000000e+02 9.750000000000000000e+02 9.760000000000000000e+02 9.770000000000000000e+02 9.780000000000000000e+02 9.790000000000000000e+02 9.800000000000000000e+02 9.810000000000000000e+02 9.820000000000000000e+02 9.830000000000000000e+02 9.840000000000000000e+02 9.850000000000000000e+02 9.860000000000000000e+02 9.870000000000000000e+02 9.880000000000000000e+02 9.890000000000000000e+02 9.900000000000000000e+02 9.910000000000000000e+02 9.920000000000000000e+02 9.930000000000000000e+02 9.940000000000000000e+02 9.950000000000000000e+02 9.960000000000000000e+02 9.970000000000000000e+02 9.980000000000000000e+02 9.990000000000000000e+02
1.000000000000000021e-02 1.000000000000000021e-02 1.000000000000000021e-02 1.000000000000000021e-02 1.000000000000000021e-02 1.000000000000000021e-02 1.000000000000000021e-02 1.000000000000000021e-02 1.000000000000000021e-02 1.000000000000000021e-02 1.000000000000000021e-02 1.000000000000000021e-02 1.000000000000000021e-02 1.000000000000000021e-02 1.000000000000000021e-02 1.000000000000000021e-02 1.000000000000000021e-02 1.000000000000000021e-02 1.000000000000000021e-02 1.000000000000000021e-02 1.000000000000000021e-02 1.000000000000000021e-02 1.000000000000000021e-02 1.000000000000000021e-02 1.000000000000000021e-02 1.000000000000000021e-02 1.000000000000000021e-02 1.000000000000000021e-02 1.000000000000000021e-02 1.000000000000000021e-02 1.000000000000000021e-02 1.000000000000000021e-02 1.000000000000000021e-02 1.000000000000000021e-02 1.000000000000000021e-02 1.000000000000000021e-02 1.000000000000000021e-02 1.000000000000000021e-02 1.000000000000000021e-02 1.000000000000000021e-02 1.000000000000000021e-02 1.000000000000000021e-02 1.000000000000000021e-02 1.000000000000000021e-02 1.000000000000000021e-02 1.000000000000000021e-02 1.000000000000000021e-02 1.000000000000000021e-02 1.000000000000000021e-02 1.000000000000000021e-02 1.000000000000000021e-02 1.000000000000000021e-02 1.000000000000000021e-02 1.000000000000000021e-02 1.000000000000000021e-02 1.000000000000000021e-02 1.000000000000000021e-02 1.000000000000000021e-02 1.000000000000000021e-02 1.000000000000000021e-02 1.000000000000000021e-02 1.000000000000000021e-02 1.000000000000000021e-02 1.000000000000000021e-02 1.000000000000000021e-02 1.000000000000000021e-02 1.000000000000000021e-02 1.000000000000000021e-02 1.000000000000000021e-02 1.000000000000000021e-02 1.000000000000000021e-02 1.000000000000000021e-02 1.000000000000000021e-02 1.000000000000000021e-02 1.000000000000000021e-02 1.000000000000000021e-02 1.000000000000000021e-02 1.000000000000000021e-02 1.000000000000000021e-02 1.000000000000000021e-02 1.000000000000000021e-02 1.000000000000000021e-02 1.000000000000000021e-02 1.000000000000000021e-02 1.000000000000000021e-02 1.000000000000000021e-02 1.000000000000000021e-02 1.000000000000000021e-02 1.000000000000000021e-02 1.000000000000000021e-02 1.000000000000000021e-02 1.000000000000000021e-02 1.000000000000000021e-02 1.000000000000000021e-02 1.000000000000000021e-02 1.000000000000000021e-02 1.000000000000000021e-02 1.000000000000000021e-02 1.000000000000000021e-02 1.000000000000000021e-02 1.000000000000000021e-02 1.000000000000000021e-02 1.000000000000000021e-02 1.000000000000000021e-02 1.000000000000000021e-02 1.000000000000000021e-02 1.000000000000000021e-02 1.000000000000000021e-02 1.000000000000000021e-02 1.000000000000000021e-02 1.000000000000000021e-02 1.000000000000000021e-02 1.000000000000000021e-02 1.000000000000000021e-02 1.000000000000000021e-02 1.000000000000000021e-02 1.000000000000000021e-02 1.000000000000000021e-02 1.000000000000000021e-02 1.000000000000000021e-02 1.000000000000000021e-02 1.000000000000000021e-02 1.000000000000000021e-02 1.000000000000000021e-02 1.000000000000000021e-02 1.000000000000000021e-02 1.000000000000000021e-02 1.000000000000000021e-02 1.000000000000000021e-02 1.000000000000000021e-02 1.000000000000000021e-02 1.000000000000000021e-02 1.000000000000000021e-02 1.000000000000000021e-02 1.000000000000000021e-02 1.000000000000000021e-02 1.000000000000000021e-02 1.000000000000000021e-02 1.000000000000000021e-02 1.000000000000000021e-02 1.000000000000000021e-02 1.000000000000000021e-02 1.000000000000000021e-02 1.000000000000000021e-02 1.000000000000000021e-02 1.000000000000000021e-02 1.000000000000000021e-02 1.000000000000000021e-02 1.000000000000000021e-02 1.000000000000000021e-02 1.000000000000000021e-02 1.000000000000000021e-02 1.000000000000000021e-02 1.000000000000000021e-02 1.000000000000000021e-02 1.000000000000000021e-02 1.000000000000000021e-02 1.000000000000000021e-02 1.000000000000000021e-02 1.000000000000000021e-02 1.000000000000000021e-02 1.000000000000000021e-02 1.000000000000000021e-02 1.000000000000000021e-02 1.000000000000000021e-02 1.000000000000000021e-02 1.000000000000000021e-02 1.000000000000000021e-02 1.000000000000000021e-02 1.000000000000000021e-02 1.000000000000000021e-02 1.000000000000000021e-02 1.000000000000000021e-02 1.000000000000000021e-02 1.000000000000000021e-02 1.000000000000000021e-02 1.000000000000000021e-02 1.000000000000000021e-02 1.000000000000000021e-02 1.000000000000000021e-02 1.000000000000000021e-02 1.000000000000000021e-02 1.000000000000000021e-02 1.000000000000000021e-02 1.000000000000000021e-02 1.000000000000000021e-02 1.000000000000000021e-02 1.000000000000000021e-02 1.000000000000000021e-02 1.000000000000000021e-02 1.000000000000000021e-02 1.000000000000000021e-02 1.000000000000000021e-02 1.000000000000000021e-02 1.000000000000000021e-02 1.000000000000000021e-02 1.000000000000000021e-02 1.000000000000000021e-02 1.000000000000000021e-02 1.000000000000000021e-02 1.000000000000000021e-02 1.000000000000000021e-02 1.000000000000000021e-02 1.000000000000000021e-02 1.000000000000000021e-02 1.000000000000000021e-02 1.000000000000000021e-02 1.000000000000000021e-02 1.000000000000000021e-02 1.000000000000000021e-02 1.000000000000000021e-02 1.000000000000000021e-02 1.000000000000000021e-02 1.000000000000000021e-02 1.000000000000000021e-02 1.000000000000000021e-02 1.000000000000000021e-02 1.000000000000000021e-02 1.000000000000000021e-02 1.000000000000000021e-02 1.000000000000000021e-02 1.000000000000000021e-02 1.000000000000000021e-02 1.000000000000000021e-02 1.000000000000000021e-02 1.000000000000000021e-02 1.000000000000000021e-02 1.000000000000000021e-02 1.000000000000000021e-02 1.000000000000000021e-02 1.000000000000000021e-02 1.000000000000000021e-02 1.000000000000000021e-02 1.000000000000000021e-02 1.000000000000000021e-02 1.000000000000000021e-02 1.000000000000000021e-02 1.000000000000000021e-02 1.000000000000000021e-02 1.000000000000000021e-02 1.000000000000000021e-02 1.000000000000000021e-02 1.000000000000000021e-02 1.000000000000000021e-02 1.000000000000000021e-02 1.000000000000000021e-02 1.000000000000000021e-02 1.000000000000000021e-02 1.000000000000000021e-02 1.000000000000000021e-02 1.000000000000000021e-02 1.000000000000000021e-02 1.000000000000000021e-02 1.000000000000000021e-02 1.000000000000000021e-02 1.000000000000000021e-02 1.000000000000000021e-02 1.000000000000000021e-02 1.000000000000000021e-02 1.000000000000000021e-02 1.000000000000000021e-02 1.000000000000000021e-02 1.000000000000000021e-02 1.000000000000000021e-02 1.000000000000000021e-02 1.000000000000000021e-02 1.000000000000000021e-02 1.000000000000000021e-02 1.000000000000000021e-02 1.000000000000000021e-02 1.000000000000000021e-02 1.000000000000000021e-02 1.000000000000000021e-02 1.000000000000000021e-02 1.000000000000000021e-02 1.000000000000000021e-02 1.000000000000000021e-02 1.000000000000000021e-02 1.000000000000000021e-02 1.000000000000000021e-02 1.000000000000000021e-02 1.000000000000000021e-02 1.000000000000000021e-02 1.000000000000000021e-02 1.000000000000000021e-02 1.000000000000000021e-02 1.000000000000000021e-02 1.000000000000000021e-02 1.000000000000000021e-02 1.000000000000000021e-02 1.000000000000000021e-02 1.000000000000000021e-02 1.000000000000000021e-02 1.000000000000000021e-02 1.000000000000000021e-02 1.000000000000000021e-02 1.000000000000000021e-02 1.000000000000000021e-02 1.000000000000000021e-02 1.000000000000000021e-02 1.000000000000000021e-02 1.000000000000000021e-02 1.000000000000000021e-02 1.000000000000000021e-02 1.000000000000000021e-02 1.000000000000000021e-02 1.000000000000000021e-02 1.000000000000000021e-02 1.000000000000000021e-02 1.000000000000000021e-02 1.000000000000000021e-02 1.000000000000000021e-02 1.000000000000000021e-02 1.000000000000000021e-02 1.000000000000000021e-02 1.000000000000000021e-02 1.000000000000000021e-02 1.000000000000000021e-02 1.000000000000000021e-02 1.000000000000000021e-02 1.000000000000000021e-02 1.000000000000000021e-02 1.000000000000000021e-02 1.000000000000000021e-02 1.000000000000000021e-02 1.000000000000000021e-02 1.000000000000000021e-02 1.000000000000000021e-02 1.000000000000000021e-02 1.000000000000000021e-02 1.000000000000000021e-02 1.000000000000000021e-02 1.000000000000000021e-02 1.000000000000000021e-02 1.000000000000000021e-02 1.000000000000000021e-02 1.000000000000000021e-02 1.000000000000000021e-02 1.000000000000000021e-02 1.000000000000000021e-02 1.000000000000000021e-02 1.000000000000000021e-02 1.000000000000000021e-02 1.000000000000000021e-02 1.000000000000000021e-02 1.000000000000000021e-02 1.000000000000000021e-02 1.000000000000000021e-02 1.000000000000000021e-02 1.000000000000000021e-02 1.000000000000000021e-02 1.000000000000000021e-02 1.000000000000000021e-02 1.000000000000000021e-02 1.000000000000000021e-02 1.000000000000000021e-02 1.000000000000000021e-02 1.000000000000000021e-02 1.000000000000000021e-02 1.000000000000000021e-02 1.000000000000000021e-02 1.000000000000000021e-02 1.000000000000000021e-02 1.000000000000000021e-02 1.000000000000000021e-02 1.000000000000000021e-02 1.000000000000000021e-02 1.000000000000000021e-02 1.000000000000000021e-02 1.000000000000000021e-02 1.000000000000000021e-02 1.000000000000000021e-02 1.000000000000000021e-02 1.000000000000000021e-02 1.000000000000000021e-02 1.000000000000000021e-02 1.000000000000000021e-02 1.000000000000000021e-02 1.000000000000000021e-02 1.000000000000000021e-02 1.000000000000000021e-02 1.000000000000000021e-02 1.000000000000000021e-02 1.000000000000000021e-02 1.000000000000000021e-02 1.000000000000000021e-02 1.000000000000000021e-02 1.000000000000000021e-02 1.000000000000000021e-02 1.000000000000000021e-02 1.000000000000000021e-02 1.000000000000000021e-02 1.000000000000000021e-02 1.000000000000000021e-02 1.000000000000000021e-02 1.000000000000000021e-02 1.000000000000000021e-02 1.000000000000000021e-02 1.000000000000000021e-02 1.000000000000000021e-02 1.000000000000000021e-02 1.000000000000000021e-02 1.000000000000000021e-02 1.000000000000000021e-02 1.000000000000000021e-02 1.000000000000000021e-02 1.000000000000000021e-02 1.000000000000000021e-02 1.000000000000000021e-02 1.000000000000000021e-02 1.000000000000000021e-02 1.000000000000000021e-02 1.000000000000000021e-02 1.000000000000000021e-02 1.000000000000000021e-02 1.000000000000000021e-02 1.000000000000000021e-02 1.000000000000000021e-02 1.000000000000000021e-02 1.000000000000000021e-02 1.000000000000000021e-02 1.000000000000000021e-02 1.000000000000000021e-02 1.000000000000000021e-02 1.000000000000000021e-02 1.000000000000000021e-02 1.000000000000000021e-02 1.000000000000000021e-02 1.000000000000000021e-02 1.000000000000000021e-02 1.000000000000000021e-02 1.000000000000000021e-02 1.000000000000000021e-02 1.000000000000000021e-02 1.000000000000000021e-02 1.000000000000000021e-02 1.000000000000000021e-02 1.000000000000000021e-02 1.000000000000000021e-02 1.000000000000000021e-02 1.000000000000000021e-02 1.000000000000000021e-02 1.000000000000000021e-02 1.000000000000000021e-02 1.000000000000000021e-02 1.000000000000000021e-02 1.000000000000000021e-02 1.000000000000000021e-02 1.000000000000000021e-02 1.000000000000000021e-02 1.000000000000000021e-02 1.000000000000000021e-02 1.000000000000000021e-02 1.000000000000000021e-02 1.000000000000000021e-02 1.000000000000000021e-02 1.000000000000000021e-02 1.000000000000000021e-02 1.000000000000000021e-02 1.000000000000000021e-02 1.000000000000000021e-02 1.000000000000000021e-02 1.000000000000000021e-02 1.000000000000000021e-02 1.000000000000000021e-02 1.000000000000000021e-02 1.000000000000000021e-02 1.000000000000000021e-02 1.000000000000000021e-02 1.000000000000000021e-02 1.000000000000000021e-02 1.000000000000000021e-02 1.000000000000000021e-02 1.000000000000000021e-02 1.000000000000000021e-02 1.000000000000000021e-02 1.000000000000000021e-02 1.000000000000000021e-02 1.000000000000000021e-02 1.000000000000000021e-02 1.000000000000000021e-02 1.000000000000000021e-02 1.000000000000000021e-02 1.000000000000000021e-02 1.000000000000000021e-02 1.000000000000000021e-02 1.000000000000000021e-02 1.000000000000000021e-02 1.000000000000000021e-02 1.000000000000000021e-02 1.000000000000000021e-02 1.000000000000000021e-02 1.000000000000000021e-02 1.000000000000000021e-02 1.000000000000000021e-02 1.000000000000000021e-02 1.000000000000000021e-02 1.000000000000000021e-02 1.000000000000000021e-02 1.000000000000000021e-02 1.000000000000000021e-02 1.000000000000000021e-02 1.000000000000000021e-02 1.000000000000000021e-02 1.000000000000000021e-02 1.000000000000000021e-02 1.000000000000000021e-02 1.000000000000000021e-02 1.000000000000000021e-02 1.000000000000000021e-02 1.000000000000000021e-02 1.000000000000000021e-02 1.000000000000000021e-02 1.000000000000000021e-02 1.000000000000000021e-02 1.000000000000000021e-02 1.000000000000000021e-02 1.000000000000000021e-02 1.000000000000000021e-02 1.000000000000000021e-02 1.000000000000000021e-02 1.000000000000000021e-02 1.000000000000000021e-02 1.000000000000000021e-02 1.000000000000000021e-02 1.000000000000000021e-02 1.000000000000000021e-02 1.000000000000000021e-02 1.000000000000000021e-02 1.000000000000000021e-02 1.000000000000000021e-02 1.000000000000000021e-02 1.000000000000000021e-02 1.000000000000000021e-02 1.000000000000000021e-02 1.000000000000000021e-02 1.000000000000000021e-02 1.000000000000000021e-02 1.000000000000000021e-02 1.000000000000000021e-02 1.000000000000000021e-02 1.000000000000000021e-02 1.000000000000000021e-02 1.000000000000000021e-02 1.000000000000000021e-02 1.000000000000000021e-02 1.000000000000000021e-02 1.000000000000000021e-02 1.000000000000000021e-02 1.000000000000000021e-02 1.000000000000000021e-02 1.000000000000000021e-02 1.000000000000000021e-02 1.000000000000000021e-02 1.000000000000000021e-02 1.000000000000000021e-02 1.000000000000000021e-02 1.000000000000000021e-02 1.000000000000000021e-02 1.000000000000000021e-02 1.000000000000000021e-02 1.000000000000000021e-02 1.000000000000000021e-02 1.000000000000000021e-02 1.000000000000000021e-02 1.000000000000000021e-02 1.000000000000000021e-02 1.000000000000000021e-02 1.000000000000000021e-02 1.000000000000000021e-02 1.000000000000000021e-02 1.000000000000000021e-02 1.000000000000000021e-02 1.000000000000000021e-02 1.000000000000000021e-02 1.000000000000000021e-02 1.000000000000000021e-02 1.000000000000000021e-02 1.000000000000000021e-02 1.000000000000000021e-02 1.000000000000000021e-02 1.000000000000000021e-02 1.000000000000000021e-02 1.000000000000000021e-02 1.000000000000000021e-02 1.000000000000000021e-02 1.000000000000000021e-02 1.000000000000000021e-02 1.000000000000000021e-02 1.000000000000000021e-02 1.000000000000000021e-02 1.000000000000000021e-02 1.000000000000000021e-02 1.000000000000000021e-02 1.000000000000000021e-02 1.000000000000000021e-02 1.000000000000000021e-02 1.000000000000000021e-02 1.000000000000000021e-02 1.000000000000000021e-02 1.000000000000000021e-02 1.000000000000000021e-02 1.000000000000000021e-02 1.000000000000000021e-02 1.000000000000000021e-02 1.000000000000000021e-02 1.000000000000000021e-02 1.000000000000000021e-02 1.000000000000000021e-02 1.000000000000000021e-02 1.000000000000000021e-02 1.000000000000000021e-02 1.000000000000000021e-02 1.000000000000000021e-02 1.000000000000000021e-02 1.000000000000000021e-02 1.000000000000000021e-02 1.000000000000000021e-02 1.000000000000000021e-02 1.000000000000000021e-02 1.000000000000000021e-02 1.000000000000000021e-02 1.000000000000000021e-02 1.000000000000000021e-02 1.000000000000000021e-02 1.000000000000000021e-02 1.000000000000000021e-02 1.000000000000000021e-02 1.000000000000000021e-02 1.000000000000000021e-02 1.000000000000000021e-02 1.000000000000000021e-02 1.000000000000000021e-02 1.000000000000000021e-02 1.000000000000000021e-02 1.000000000000000021e-02 1.000000000000000021e-02 1.000000000000000021e-02 1.000000000000000021e-02 1.000000000000000021e-02 1.000000000000000021e-02 1.000000000000000021e-02 1.000000000000000021e-02 1.000000000000000021e-02 1.000000000000000021e-02 1.000000000000000021e-02 1.000000000000000021e-02 1.000000000000000021e-02 1.000000000000000021e-02 1.000000000000000021e-02 1.000000000000000021e-02 1.000000000000000021e-02 1.000000000000000021e-02 1.000000000000000021e-02 1.000000000000000021e-02 1.000000000000000021e-02 1.000000000000000021e-02 1.000000000000000021e-02 1.000000000000000021e-02 1.000000000000000021e-02 1.000000000000000021e-02 1.000000000000000021e-02 1.000000000000000021e-02 1.000000000000000021e-02 1.000000000000000021e-02 1.000000000000000021e-02 1.000000000000000021e-02 1.000000000000000021e-02 1.000000000000000021e-02 1.000000000000000021e-02 1.000000000000000021e-02 1.000000000000000021e-02 1.000000000000000021e-02 1.000000000000000021e-02 1.000000000000000021e-02 1.000000000000000021e-02 1.000000000000000021e-02 1.000000000000000021e-02 1.000000000000000021e-02 1.000000000000000021e-02 1.000000000000000021e-02 1.000000000000000021e-02 1.000000000000000021e-02 1.000000000000000021e-02 1.000000000000000021e-02 1.000000000000000021e-02 1.000000000000000021e-02 1.000000000000000021e-02 1.000000000000000021e-02 1.000000000000000021e-02 1.000000000000000021e-02 1.000000000000000021e-02 1.000000000000000021e-02 1.000000000000000021e-02 1.000000000000000021e-02 1.000000000000000021e-02 1.000000000000000021e-02 1.000000000000000021e-02 1.000000000000000021e-02 1.000000000000000021e-02 1.000000000000000021e-02 1.000000000000000021e-02 1.000000000000000021e-02 1.000000000000000021e-02 1.000000000000000021e-02 1.000000000000000021e-02 1.000000000000000021e-02 1.000000000000000021e-02 1.000000000000000021e-02 1.000000000000000021e-02 1.000000000000000021e-02 1.000000000000000021e-02 1.000000000000000021e-02 1.000000000000000021e-02 1.000000000000000021e-02 1.000000000000000021e-02 1.000000000000000021e-02 1.000000000000000021e-02 1.000000000000000021e-02 1.000000000000000021e-02 1.000000000000000021e-02 1.000000000000000021e-02 1.000000000000000021e-02 1.000000000000000021e-02 1.000000000000000021e-02 1.000000000000000021e-02 1.000000000000000021e-02 1.000000000000000021e-02 1.000000000000000021e-02 1.000000000000000021e-02 1.000000000000000021e-02 1.000000000000000021e-02 1.000000000000000021e-02 1.000000000000000021e-02 1.000000000000000021e-02 1.000000000000000021e-02 1.000000000000000021e-02 1.000000000000000021e-02 1.000000000000000021e-02 1.000000000000000021e-02 1.000000000000000021e-02 1.000000000000000021e-02 1.000000000000000021e-02 1.000000000000000021e-02 1.000000000000000021e-02 1.000000000000000021e-02 1.000000000000000021e-02 1.000000000000000021e-02 1.000000000000000021e-02 1.000000000000000021e-02 1.000000000000000021e-02 1.000000000000000021e-02 1.000000000000000021e-02 1.000000000000000021e-02 1.000000000000000021e-02 1.000000000000000021e-02 1.000000000000000021e-02 1.000000000000000021e-02 1.000000000000000021e-02 1.000000000000000021e-02 1.000000000000000021e-02 1.000000000000000021e-02 1.000000000000000021e-02 1.000000000000000021e-02 1.000000000000000021e-02 1.000000000000000021e-02 1.000000000000000021e-02 1.000000000000000021e-02 1.000000000000000021e-02 1.000000000000000021e-02 1.000000000000000021e-02 1.000000000000000021e-02 1.000000000000000021e-02 1.000000000000000021e-02 1.000000000000000021e-02 1.000000000000000021e-02 1.000000000000000021e-02 1.000000000000000021e-02 1.000000000000000021e-02 1.000000000000000021e-02 1.000000000000000021e-02 1.000000000000000021e-02 1.000000000000000021e-02 1.000000000000000021e-02 1.000000000000000021e-02 1.000000000000000021e-02 1.000000000000000021e-02 1.000000000000000021e-02 1.000000000000000021e-02 1.000000000000000021e-02 1.000000000000000021e-02 1.000000000000000021e-02 1.000000000000000021e-02 1.000000000000000021e-02 1.000000000000000021e-02 1.000000000000000021e-02 1.000000000000000021e-02 1.000000000000000021e-02 1.000000000000000021e-02 1.000000000000000021e-02 1.000000000000000021e-02 1.000000000000000021e-02 1.000000000000000021e-02 1.000000000000000021e-02 1.000000000000000021e-02 1.000000000000000021e-02 1.000000000000000021e-02 1.000000000000000021e-02 1.000000000000000021e-02 1.000000000000000021e-02 1.000000000000000021e-02 1.000000000000000021e-02 1.000000000000000021e-02 1.000000000000000021e-02 1.000000000000000021e-02 1.000000000000000021e-02 1.000000000000000021e-02 1.000000000000000021e-02 1.000000000000000021e-02 1.000000000000000021e-02 1.000000000000000021e-02 1.000000000000000021e-02 1.000000000000000021e-02 1.000000000000000021e-02 1.000000000000000021e-02 1.000000000000000021e-02 1.000000000000000021e-02 1.000000000000000021e-02 1.000000000000000021e-02 1.000000000000000021e-02 1.000000000000000021e-02 1.000000000000000021e-02 1.000000000000000021e-02 1.000000000000000021e-02 1.000000000000000021e-02 1.000000000000000021e-02 1.000000000000000021e-02 1.000000000000000021e-02 1.000000000000000021e-02 1.000000000000000021e-02 1.000000000000000021e-02 1.000000000000000021e-02 1.000000000000000021e-02 1.000000000000000021e-02 1.000000000000000021e-02 1.000000000000000021e-02 1.000000000000000021e-02 1.000000000000000021e-02 1.000000000000000021e-02 1.000000000000000021e-02 1.000000000000000021e-02 1.000000000000000021e-02 1.000000000000000021e-02 1.000000000000000021e-02 1.000000000000000021e-02 1.000000000000000021e-02 1.000000000000000021e-02 1.000000000000000021e-02 1.000000000000000021e-02 1.000000000000000021e-02 1.000000000000000021e-02 1.000000000000000021e-02 1.000000000000000021e-02 1.000000000000000021e-02 1.000000000000000021e-02 1.000000000000000021e-02 1.000000000000000021e-02 1.000000000000000021e-02 1.000000000000000021e-02 1.000000000000000021e-02 1.000000000000000021e-02 1.000000000000000021e-02 1.000000000000000021e-02 1.000000000000000021e-02 1.000000000000000021e-02 1.000000000000000021e-02 1.000000000000000021e-02 1.000000000000000021e-02 1.000000000000000021e-02 1.000000000000000021e-02 1.000000000000000021e-02 1.000000000000000021e-02 1.000000000000000021e-02 1.000000000000000021e-02 1.000000000000000021e-02 1.000000000000000021e-02 1.000000000000000021e-02 1.000000000000000021e-02 1.000000000000000021e-02 1.000000000000000021e-02 1.000000000000000021e-02 1.000000000000000021e-02 1.000000000000000021e-02 1.000000000000000021e-02 1.000000000000000021e-02 1.000000000000000021e-02 1.000000000000000021e-02 1.000000000000000021e-02 1.000000000000000021e-02 1.000000000000000021e-02 1.000000000000000021e-02 1.000000000000000021e-02 1.000000000000000021e-02 1.000000000000000021e-02 1.000000000000000021e-02 1.000000000000000021e-02 1.000000000000000021e-02 1.000000000000000021e-02 1.000000000000000021e-02 1.000000000000000021e-02 1.000000000000000021e-02 1.000000000000000021e-02 1.000000000000000021e-02 1.000000000000000021e-02 1.000000000000000021e-02 1.000000000000000021e-02 1.000000000000000021e-02 1.000000000000000021e-02 1.000000000000000021e-02 1.000000000000000021e-02 1.000000000000000021e-02 1.000000000000000021e-02 1.000000000000000021e-02 1.000000000000000021e-02 1.000000000000000021e-02 1.000000000000000021e-02 1.000000000000000021e-02 1.000000000000000021e-02 1.000000000000000021e-02 1.000000000000000021e-02 1.000000000000000021e-02 1.000000000000000021e-02 1.000000000000000021e-02 1.000000000000000021e-02 1.000000000000000021e-02 1.000000000000000021e-02 1.000000000000000021e-02 1.000000000000000021e-02 1.000000000000000021e-02 1.000000000000000021e-02 1.000000000000000021e-02 1.000000000000000021e-02 1.000000000000000021e-02 1.000000000000000021e-02 1.000000000000000021e-02 1.000000000000000021e-02 1.000000000000000021e-02 1.000000000000000021e-02 1.000000000000000021e-02 1.000000000000000021e-02 1.000000000000000021e-02 1.000000000000000021e-02 1.000000000000000021e-02 1.000000000000000021e-02 1.000000000000000021e-02 1.000000000000000021e-02 1.000000000000000021e-02 1.000000000000000021e-02 1.000000000000000021e-02 1.000000000000000021e-02 1.000000000000000021e-02 1.000000000000000021e-02 1.000000000000000021e-02 1.000000000000000021e-02 1.000000000000000021e-02 1.000000000000000021e-02 1.000000000000000021e-02 1.000000000000000021e-02 1.000000000000000021e-02 1.000000000000000021e-02 1.000000000000000021e-02 1.000000000000000021e-02 1.000000000000000021e-02 1.000000000000000021e-02 1.000000000000000021e-02 1.000000000000000021e-02 1.000000000000000021e-02 1.000000000000000021e-02 1.000000000000000021e-02 1.000000000000000021e-02 1.000000000000000021e-02 1.000000000000000021e-02 1.000000000000000021e-02 1.000000000000000021e-02 1.000000000000000021e-02 1.000000000000000021e-02 1.000000000000000021e-02 1.000000000000000021e-02 1.000000000000000021e-02 1.000000000000000021e-02 1.000000000000000021e-02 1.000000000000000021e-02 1.000000000000000021e-02 1.000000000000000021e-02 1.000000000000000021e-02 1.000000000000000021e-02 1.000000000000000021e-02 1.000000000000000021e-02 1.000000000000000021e-02 1.000000000000000021e-02
9.451166339233072478e-01 -4.384472551957788178e-01 -2.302957498863251184e-01 4.627833453173517131e-01 2.647299519051712346e-01 -8.894417480661347408e-01 -6.783307542150694702e-02 -5.762725993193723584e-01 1.126225353766214382e-01 3.378456172252829459e-01 1.292898217689763429e+00 -1.469665747996219185e+00 3.768632993348234983e+00 1.253992736157643895e-01 -2.323531391958751080e-01 -3.234498039669475578e-01 4.111203548939685315e-01 9.618999921174042900e-02 9.906738347558266544e-02 -2.485408644603001038e-01 -2.057185505140343429e-01 1.298863624744073242e-01 -9.103165834577242599e-02 -1.667517871127031648e-01 -2.085304020957501336e-02 -1.582946410046713881e-01 2.026601540909299892e+00 4.308420876428019630e-01 2.565351488204735131e-01 1.478444042561636973e+00 1.630588274329340948e-01 -4.871861267404708484e-01 -6.722250085313075108e-01 9.430258038447915103e-01 9.092622928044966635e-01 -5.681483096549057032e-01 -4.733108901600898699e-01 2.049849041489048840e-01 1.512194936052923655e+00 9.171454192819480378e-01 -5.940987851956762711e-01 -1.726302386576957559e+00 1.190043522636408779e+00 -1.303244293720245306e+00 -3.513886873067902927e-01 -9.473997268540228500e-01 -1.691285704211132127e-02 -8.183985348061882936e-01 1.714781450134053919e+00 -3.645055129966158769e-01 2.425561921425666567e-01 -2.545913655100919271e-01 -2.367494410698794960e-01 -2.861123970627253321e+00 -1.193230866697843506e+00 2.116571798741853638e-01 -7.136747794029557390e+00 -2.641757278222894301e-01 1.985675343435634677e+00 7.652128945440543617e-02 1.096383003435847714e+00 1.241721204089252684e+00 -2.659453128191417992e+00 -3.535952988588905166e-01 1.951952996411103480e-01 4.606274507716526800e-01 7.159409876400609773e-01 1.039469831618067053e+00 4.561765318076421716e-01 2.374934777264605945e-01 -5.893249593336555847e-01 2.847734127801135329e-02 -2.660006206976759380e-01 7.424471013887417037e-01 -3.176305647103201402e-01 -7.087193848770809712e-01 2.376584365041313485e-02 -4.109262962571646471e-01 -4.111764801609235631e-01 1.194321365159431636e+01 -6.271802239935508894e-01 -4.598910384172300025e-01 2.155071368782199848e+00 1.168485489103659569e+00 1.171560537589254380e+00 8.705456796153698829e-01 -5.583905195345483241e-01 3.505278454903477114e-01 9.943976271711273129e-02 1.289663365180224286e+00 1.946949614664272854e-01 1.947250161139612246e+00 8.758137821833892334e-01 -1.831665750095968992e+00 7.779227789118646763e-01 -7.600334518614580981e-01 -7.903026794962325630e-02 -3.999456087324689824e-01 1.507057485183358470e-01 -1.579430891755726263e+00 -9.451565033265163507e-01 1.169058976981671716e+00 1.690999508738924906e+00 6.557962358035106520e-01 1.121377479490065499e+00 7.512677910669351977e-01 -7.491331538570060733e-01 2.169982249834019328e+00 2.998709188851717555e-01 -3.929910480759788438e-01 3.956978529164785763e-01 -1.922239336389000297e-01 -4.215304348845630988e-01 -1.698949313422088991e-01 1.939005910120571441e-01 -2.559512731850150519e-02 -5.864213078969279097e-02 -2.371061415886723256e-01 1.842476640629573392e+00 1.155242822759206672e-01 -3.080007013389731707e-01 4.125934601822406345e-02 -7.779403777745196313e-01 1.424120822399514763e+00 6.769302351895275516e-01 -2.839503200679074357e-01 -6.255999749024387935e-01 -2.669077520393871583e-01 -1.127462561391613383e-01 9.043861018695387166e-01 -2.688635108522432482e-01 -9.076766976261610997e-01 -2.082521184934491842e-01 -1.726366851961753102e-01 -4.025927851526734935e-01 2.575429558868365665e-01 -2.292339820425328412e-01 3.686471410048066666e-01 -1.400744005665542080e-01 -8.255163393882030132e-01 -4.255885795521278658e-01 -1.724022488801700559e-01 1.858322509569379222e-01 1.236498420890725480e+00 -1.024322343915398392e-01 -1.415017866761755450e+00 3.911633603030899020e-01 -9.967512747082417357e-02 2.072765913918340086e+00 1.796661095839046651e-01 -2.012322462212148000e-01 -2.760391602186882398e+00 -4.174372016218820258e-01 1.996635513069630330e-01 -5.746328015216402019e-01 4.071792260398472973e-01 -7.860722417526663786e-02 -1.261903528910318095e-01 3.310407417010599040e+00 8.468357343972390261e-01 1.343977267512391216e-01 6.175488667697489609e-01 -1.875425175304757108e-01 -6.738219262241126328e-01 -8.252902096764470896e-03 -6.386495231207361956e-02 6.532215498930078468e-01 2.202238752796824350e+00 -6.384816084514909340e-01 3.190633643889856375e-01 4.585120198905618949e-01 6.643177214042195189e-01 1.054120953612213585e+00 2.513611120742845761e-01 -4.013412198561694955e-01 -1.617084333489701597e+00 1.215814797499632727e+00 1.745566580868259388e-01 -2.620708648126603979e-01 -2.463839301872254306e-01 2.842260461138860009e-02 1.106044327803913152e+00 5.260279938370591157e-01 -6.456531790217568956e-01 1.924089072702506398e+00 1.181476853890684131e+00 6.222053020420954816e-02 5.306993521753562704e-02 -2.387241060798246828e+00 -1.383250883940002618e+00 -5.448524402118516408e-01 4.286670065080180336e-01 1.387514602360891525e+00 -2.932486272239562819e-01 -8.026981162206231479e-01 -7.295287599459172878e-02 -8.152479562785481804e-01 1.721774502408171426e+00 5.531007832887210318e-01 -4.672939251474744760e-02 6.355787204620600983e-01 -1.131720696753693689e+00 1.227421918738268669e+00 -1.249716148694686169e+00 -1.216978071101735503e+00 -8.610165329873792350e-01 -6.411809566113871872e-01 -6.002522462844547269e-01 -9.944878187367022226e-01 -3.758848987626489113e-01 -1.060119833966275404e+00 -1.818149780316020259e+00 6.120907431233642976e-02 6.102152879545263975e-01 9.359258423010456962e-01 -1.285953654227392606e+00 1.079616942977234206e+00 1.808526514036396804e-01 -1.840935726568696806e-01 -2.504851281614019487e-01 -7.139298473525543809e-01 -6.818834497241892389e-01 -3.267435300326103853e+00 -3.779774880384678126e-01 7.856440989475561576e-01 7.835783791563417644e-01 7.824585028067676529e-02 1.287956144645471035e+00 8.071182550298287017e-01 -1.197008461807263641e-01 -3.249930743343758532e-01 -1.546587949693856823e+00 2.509466478114023680e+00 -1.543388026493290877e+00 -1.016767667587934465e-01 -2.093109555828728541e-01 5.054140900556740590e-01 -3.815536382019977246e+00 -9.734891112954159320e-01 -5.995435531139201579e-01 -7.689213678782842731e-02 3.183369170743142185e-01 1.047582692131674709e-01 -6.499361986174346795e-01 1.057418760139056113e+00 2.235178910873128366e+00 -4.896531504877826291e-01 -3.303623887811442672e-01 -6.948584054463192994e-02 1.216982062266813935e+00 1.237187990807921301e+00 5.141140388221278057e-01 6.112983983842291691e-01 1.162520483540160354e+00 -2.718780881150808723e-02 -4.883988327272403840e-02 -2.242100575869382606e+00 3.141751325208486656e-01 -9.856078671677002967e-02 3.235527240665688198e-01 8.401332177375958610e-01 3.195781722872730046e-02 -1.472482933786177561e+00 5.399734451944119412e-02 4.008533735803054276e-01 2.335026024963881230e+00 7.839453706316206194e-01 -7.741884700214828330e-01 4.081579185678503863e-01 -5.267051164053184742e-01 -1.530195810262673817e+00 -4.530272166658363409e-01 -8.852640219840021141e-01 -2.031136745376597719e-01 -3.780683639111198646e-01 2.792266724961254831e-01 1.974641014717527066e+00 -3.136463114508844519e-01 -4.208693034178972447e-01 2.734549305903385408e-01 -8.089075832989529591e-01 -3.361379016783628826e-01 1.051120234304257828e+00 7.470373088036511566e-01 5.248800025503149724e-01 7.443949945913909128e-01 6.631951623640242044e-01 1.556455074921141879e+00 1.352893772420893370e+00 -5.607486340366096833e-01 -1.891590124587600341e+00 -1.059132522296068191e-01 -2.159542690429203382e-01 -8.335983632165606672e-01 9.476566149511256310e-02 8.325415465128558345e-01 4.045771026550639693e-01 -2.563470160153084043e-01 2.693029585618296126e-02 -5.875285491267583371e-01 -7.740363544731485579e-01 -9.601945728821424941e-01 -2.209224821926440985e-01 4.561925084449029444e-01 -5.542226265303226151e-01 -1.048587475053520901e+00 -1.783648752245180047e+00 -7.577913699195116815e-01 2.311508879677981465e+00 3.482115965477561997e-02 4.198898116669833591e-01 1.178286132961034738e-01 4.427536217487798020e-01 -1.263183210736875228e+00 8.306474376343795374e-01 -2.072193279502726693e+00 -6.855441900388884457e-01 -5.251428358615298775e-01 -1.463369047101177989e+00 2.569068042879545932e-01 2.705651296955111196e+00 2.689473543360192842e+00 -2.855962085774846893e-01 -1.049487147190091507e+00 -1.514812031594512609e+00 2.910581363299090452e+00 4.888020963354496318e-01 -1.538124611110031625e-01 -2.884599819273239163e-01 -6.353307310953119902e-02 1.807790358717793755e-01 -1.834189927355044158e+00 -2.346847546843240373e-01 -3.733693600525131440e-01 4.781624129919183341e-02 5.520992126538664113e-01 -1.186668968801443791e+00 -2.257491583802914009e-02 -2.240568947739694783e-01 1.511874491467626591e-01 -6.747728035429039206e-01 -2.675080258215682960e-01 -5.033659058293160626e-01 -2.144064359318644808e+00 -1.015076448564917744e+00 -1.235668930436178758e+00 -9.088337367094869723e-01 -5.355203454907800920e-01 -8.578675660281037674e-01 1.508152859503481213e+00 -2.332271521570166914e-02 1.262626608611629453e-01 3.305320330845966659e-01 -1.474215473821263167e-01 -1.200271637387494650e+00 -5.998292930888284857e-01 -2.149500159674466282e+00 -5.782401326923029827e-03 5.493487404057051382e-01 1.285430982139341261e+00 1.286562107710553571e+00 4.939698384729347969e-01 1.845882742156613077e+00 9.049377055733617281e-01 1.716003525745426916e+00 -4.144655465821857621e-01 -6.499729415682883316e-01 -1.364961236111528198e-01 -6.013253259286428509e-01 7.253594002127919937e-01 3.028132930900925834e-01 -1.520358903505590886e-01 1.027612900926963002e+00 -2.780182132201987344e-02 2.141103183225692430e-01 -1.687877895585958798e+00 -2.151240342051275789e+00 -5.064002716190352249e-01 9.846667894060120441e-01 5.317839927137758549e-01 -2.055533520827665495e+00 -6.645910493576130396e-01 -1.233042320117075263e+00 2.386471092152289142e+00 -2.412908374825769586e-01 -1.181199638338962243e-01 -1.636726569797703479e-01 -9.833558042105596808e-01 -1.522812098891962895e+00 1.632881580023668455e-01 1.679257708226601989e-02 -5.330520632085641308e-01 -1.420912832829635819e-01 6.012333965889121723e-01 -5.965125819728670509e-01 -1.939324988829116692e-01 7.691019160245866626e-01 -6.727092052941330280e-01 -8.087182741583333057e-01 8.255995160481720552e-01 1.189433824459398936e+00 7.034987409727840868e-01 1.369330893096077029e+00 1.318525119132412382e-01 1.901337244170497431e+00 2.257821146023132330e-01 -9.977730865593569254e-01 -4.763004794324598445e-01 1.890959175831771200e-01 7.108233175601764708e-01 -6.207557709564868187e-01 1.843697962950603841e+00 -1.025551006167706003e+00 -1.420853574801278718e+00 -3.399801771304264419e-01 9.185439247977375543e-02 6.152879223421012789e-01 1.615446890942889180e+00 7.463420561999313252e-01 1.073008434810242412e-01 -4.480622793057918440e-01 -1.073688565090640396e-01 -6.051854700384283747e-01 3.008715416648479607e-02 1.403476980801571239e-02 -2.696656686497613364e+00 -3.959823973158332344e-01 -1.443160107516741064e+00 -1.296457713937112732e+00 1.764640395877212220e-01 1.462788469649630940e+00 -1.625390115932036084e+00 -6.845894249843693657e-01 -2.433441195779231681e+00 1.192191586596401454e+00 -2.666711846214749049e-02 5.502039155666855752e-01 -2.129714472716873086e+00 -3.589475085815048150e-01 2.469818944109104797e-02 -2.098468334604182139e-01 -1.479006421329938537e+00 -6.881753962157374227e-01 5.672948389944042491e-01 -4.895101118709174748e-02 9.278976843131840624e-02 -4.921420481669801505e-01 2.664723941889673431e-01 -8.015002764872022900e-02 -4.778585171073740367e-02 2.612259234099552074e-01 1.241127466176960681e+00 -9.909979405173935385e-01 -1.045622850105210278e+00 1.014169555144551760e+00 1.366672169180178420e+00 3.155763920394311778e-02 -1.962069615854372118e-01 1.540491183358262683e-02 -1.018316867291433780e+00 7.391500708165796296e-02 2.567449422384864843e-01 1.934191667331393583e-01 -1.015073645292881160e-01 -7.772415917657222728e-01 1.019329224230975495e+00 -9.685798582601433671e-01 -6.296828227681556811e-01 -3.601495497341237195e-01 1.284501588471019251e-01 9.817186046536874322e-02 5.884027810564487204e-01 -4.652191771820177735e-01 -1.709927116214002840e+00 2.841828959948598410e+00 -4.794280365099804625e-02 -2.429882969776680224e-01 -3.720870878148967886e+00 -8.396278528173769518e-01 -1.057046933430015656e+00 4.302377005235950014e-01 -3.141723245154049327e+00 2.281037395614919472e+00 6.707120703915653293e-01 2.615268210287143291e-01 -5.651238231467510531e-02 3.851078719905509651e-01 2.406918307848295302e-01 6.372906308707452228e-01 6.253677263235870587e-01 7.595997052779515091e-01 1.194313993078323088e+00 1.264639612627762144e+00 5.738267658903137836e-01 1.441513486482805195e+00 -2.081799609467890555e+00 -2.945743275697371821e+00 -1.152009105338871742e-01 1.595361644992570493e+00 6.388654146051382376e-01 5.517184314233658515e-01 5.745047110602229112e-02 2.950042696501766273e-02 -4.414037513049525741e-01 1.226787109250685459e+00 -4.597597942115609349e-01 5.587627899362153094e-01 3.207196244902024707e-01 -1.046605213863057160e-01 -2.195316536394533585e-02 -6.836586312256497378e-01 2.871475540429088702e-02 -4.783468151841037130e-01 -1.188049029987633620e+00 1.361628450833570536e+00 -3.345107820919045877e-02 -5.960452092168524452e-01 -1.124500977140546754e-02 -1.968744983141442528e+00 1.570725224339844517e-01 -1.411627992409434929e-01 9.932054637683080944e-01 5.918405131249504514e-01 8.462861228765112820e-01 1.299538332493096748e-01 2.322764202262140643e+00 -5.790027738208262109e-01 -1.825119064155791504e+00 6.260185146535623968e-01 -1.492189682730440836e+00 -1.044619813999457580e+00 1.485028074800968934e-01 -4.703875675120051947e-02 1.458305674750184633e-01 -2.151608188834178703e-01 -9.050933665045793886e-01 -1.407962528607561714e-01 -1.154244013578394623e-01 9.544943286611391464e-01 8.514321547117682520e-01 -1.996831921769292473e+00 1.734235300792708045e-01 2.543522201155294482e+00 -1.023561060793668265e+00 2.987713467350519014e-01 3.442354632647567914e-01 -1.176363787423192059e-01 -5.283526943305647539e-01 1.373403094967844684e-01 -1.346959249397069014e+00 3.744875957944881484e-01 -6.261902448867745496e-01 -1.302148238716186943e-02 -4.633515686618602802e-02 -3.292912501088780114e-02 5.703913763447538976e-01 -1.310521719013754582e+00 4.797649613265676516e-01 -5.930413578102955441e-01 1.477033118438709214e-01 -1.472679008559187430e+00 3.249793672517705900e+00 -4.678024736261320871e-01 -6.350939900705726560e-02 7.816450493356975893e-02 2.207683805061353977e-01 -7.690250614316401778e-02 -1.105793328367599138e+00 9.988315202494796319e-01 -1.326730076121578783e+00 -1.090056258516546972e+00 8.708385003599184992e-01 -1.164662744371716407e-01 -1.089817214957805591e+00 1.697401335402916489e+00 -1.069766375665908376e+00 2.307749791751562973e-01 2.841267397080886048e-01 -5.107313586866029098e-01 1.893647613062893545e-02 -6.667857738761155950e-01 -2.198389453037516539e+00 5.328143197187518165e-01 -3.938339574945368127e-03 -1.808675096696143320e-03 1.343737416711732635e+00 2.060581563761659130e+00 -1.700792191695716937e+00 -6.309533000068962005e-01 6.883411513093208312e-01 -2.031405066201412257e+00 -1.955510282169418135e-01 -1.044900129704546154e+00 -7.254505136539339816e-01 -9.704350437426823017e-02 9.665799372872281303e-01 2.522172747043954777e-01 1.138792614745583798e+00 7.445672761262076556e-01 6.474808569077320497e-01 -2.037932627288625120e+00 1.778888435926834211e-01 -4.940474000291242285e-01 -5.434154073414702024e-01 -1.147703169397861434e+00 3.030874538361860160e-01 2.219915879018334037e-01 -3.474699056425418209e-01 -9.202932990217336240e-01 -5.951834977045024344e-02 1.009364247770912604e+00 3.046507026786381411e-01 1.535633617130352846e+00 -4.553217510237576593e-01 7.755340596976129097e-01 2.755096610408200308e-01 5.033448638199724406e-02 2.268134474785546750e+00 3.162968637788150073e+00 3.620200600932506063e-01 1.596199254091244107e-03 -1.436745250727742951e+00 2.900253841659650722e-01 -5.729484357436459563e-01 2.077600375916730802e-01 3.080219928815831620e-01 -1.172543622653787754e+00 -1.494281616848942340e+00 -2.166755734125807020e-01 -1.319872789352621867e-01 1.779030620009864672e+00 -1.061011821943598221e+00 -2.792051714988974531e+00 -2.983370540787115277e-01 8.037987514202428185e-01 1.377433009733795455e+00 -2.579066837185983729e+00 -5.445715248948083120e-01 -2.859042976043849604e-01 7.230714465572909422e-01 6.466239809398472982e-01 1.503878774447793498e+00 -5.617524775443540896e-01 1.389216288918851683e-01 4.537248814619715409e-01 4.622788998521821791e-01 -7.100194998344480646e-02 -5.934554442202427671e-01 -1.766280764935834191e-01 -1.917453697714344152e-02 -7.625662470856049424e-01 -6.642332427970654152e-01 2.521610189049762862e+00 -2.499632383608244579e-01 7.626332318012117861e-01 -1.515205205097755581e+00 -7.133359161691106287e-01 2.133488525601431984e+00 2.951877050899202604e-01 4.205583906008832917e-01 -8.200508895749289429e-02 -4.980810975985376365e-01 2.642481605061064442e-01 4.580860049761987379e-02 -1.093294396423217352e+00 -4.465835998845209542e-01 -2.569702373666544748e-01 -7.023703318390959183e-01 -1.095755103929829222e+00 -2.410404248034786479e-01 8.682353733870811219e-01 -5.574599879036850475e-02 1.203263748821105983e+00 -2.563088449380025446e-01 1.517221888653631501e+00 1.114818155860070742e-01 -1.869402760053228363e+00 -1.501482857210173494e-01 1.621949761657784927e-01 -4.456345850241731632e-02 4.576075770391395681e-01 9.127194544539498633e-01 9.731949607416853776e-02 1.629188788595736348e+00 1.837892356720546072e+00 1.084860297879917779e+00 6.815573261443209213e-04 -5.907600088045725922e-02 -9.156893020705005881e-01 1.038975787685756158e+00 1.256989861344312287e-01 -3.331898528596898834e-01 -9.789797098287128518e-01 -4.784421743213374545e-01 -9.297474171975155244e-01 1.130219259518762814e-01 -2.047999439895006546e+00 -1.143956051493621784e+00 3.894520387408695772e+00 -3.280135608481672960e-01 -1.388214186936631567e-01 5.959723839181801236e-02 -1.483687618462713687e+00 -4.572490387444524962e-01 5.628104912182728681e-01 -3.601659627266352581e-01 -9.160966678012813502e-02 -5.518918170642285181e-01 -8.550582198360731634e-02 -9.849928153918013907e-02 -3.248279644336479755e-02 1.843243460521498123e-01 3.224186576109634023e-02 6.951825524558028491e-01 -1.881798894618849360e-01 2.602057343375064891e-01 8.326656165486194805e-01 3.745810347594948908e-01 1.988498861481749591e+00 -7.149766135431427916e-01 -1.971012363080244245e-01 8.842322856433478817e-01 -8.820075085119327696e-01 9.169955923838866152e-01 -5.339285705104151319e-03 -1.368357537516141573e-02 -4.161684873958138908e+00 -1.053687622150727643e+00 -3.097428141260268220e+00 -6.725724306695185506e-02 -5.752039545492193540e-01 -7.788741306044806301e-01 -3.260479193524453700e-01 -6.765839611489080641e-01 -1.981828048717897639e+00 -5.949072583704877459e-01 -1.304270254642060811e+00 6.637943693427783565e-02 -5.671694316937693492e-02 -5.860999465023499777e-01 6.860541740760544016e-01 -1.047075856231684199e+00 5.626758513372746018e-01 6.803586514030381949e-01 -2.565134533395829752e-01 -6.677061377331799941e-01 1.780332264840661649e+00 -1.810359105673799762e+00 -2.367319933312851177e+00 -2.742085357370981358e-01 4.564829025294595555e-01 -1.024260468751083897e+00 1.346406948924154356e+00 1.004733115886383032e+00 -1.848056501260381818e-02 1.034724861691697362e-01 -2.689351727816797766e+00 1.085525536784498923e+00 -4.759008855336137600e-01 4.056203144930377591e-01 9.619509651422796237e-01 -1.087086340472880552e+00 -1.665051262636393359e+00 -1.194181539295379180e+00 5.979413612327419969e-01 -1.313353350302665090e-01 -1.358202435930501606e+00 -1.322112095122219610e+00 6.182620451358844527e-01 6.989732287016343637e-01 7.198688063243674495e-01 9.614850319717818117e-01 -3.495288887400159750e-01 2.007965809320931549e-01 1.896306141204077145e+00 2.178309954954130157e-01 -1.632401121006288314e-01 -1.990663301363305993e-01 -3.022085783434838024e-01 3.273441435432030922e+00 1.735446576321432732e-01 -6.224333318466930276e-01 -5.638457317442331362e-01 -6.145509831926898592e-01 1.499310484121796072e-01 3.620206748564516741e-01 -1.798302571224361879e+00 8.569703198121073617e-01 1.703908371231594998e+00 6.901476328161978424e-01 4.600864271278451989e-01 5.598562867798646120e-02 -1.272530331669037729e+00 -7.109153486998707194e-01 1.523159477210770385e+00 6.142567120595006092e-01 -6.191770460208401161e-01 -1.779715703456834719e+00 9.541451112520762390e-01 1.360815211488844989e+00 -2.219325831302008112e-01 7.928138352636838748e-01 -2.694113488487132724e+00 -3.240694711074649792e-01 1.691966544756371649e+00 -3.592413842221293230e+00 9.062312546461938068e-01 4.275565542201529290e+00 3.372209709357890661e-01 9.160384729436857887e-01 -2.438473730191406397e-01 -1.128598743262820170e+00 5.988176688361873667e-01 -6.346485978105310677e-01 -7.833031613539724880e-01 -4.877897504115858429e-01 -6.870536127422383066e-02 -5.602480585341096386e-01 -8.069053538095947165e-01 2.194127953257634517e-02 -8.259350929334443592e-01 2.199379311585328289e-02 -5.025671704607911350e-01 -2.645030838312333876e-01 -7.287572077269514059e-01 -2.362629222495046033e+00 -5.133895929164754568e-01 8.769429235902690412e-01 -7.076427188544008873e-01 1.819790203116670169e-01 -8.695780442834960544e-01 -2.302921442079910896e+00 -5.780383149981721536e-01 4.777558259162566046e+00 -8.371734072344617639e-01 5.808845079043545301e-01 -2.862532747299824543e+00 2.034482673268153408e-01 -3.387889617926997943e-02 -1.445582978592948875e-01 4.255972162570339501e-01 -3.663759174786387907e-01 9.388748660822707204e-02 2.677493575291062244e-01 3.478416100387980020e-02 7.265590689336799413e-01 -1.199168535064252694e+00 1.249746902355339362e+00 1.644756252081521986e+00 3.665671173392042181e-01 6.673700102253478095e-01 9.459174577015352359e-01 -6.944289411004560542e-01 -1.658338023323637334e+00 -7.620941533627358100e-02 7.348075216278813215e-01 -1.252784624068783215e+00 -1.728227177596642905e+00 1.383481624622841410e+00 3.379281647866281268e-01 -4.189159096349485134e-01 -9.826006049899277395e-01 1.006753777832228719e-01 -3.568497636670714401e-01 9.801507058485421364e-01 -1.193490470540251591e+00 2.185302559091035324e+00 -2.973676089938266820e+00 2.393584202845099318e-01 1.474585979337305897e-01 1.909101350082266224e-01 -9.133702421177195552e-01 -1.542465507737720065e+00 7.620099872669442442e-01 6.606656964852962721e-01 9.408439368089543953e-01 -2.662052123740967224e-01 -2.808074416426842301e-01 1.103260310971150959e+00 6.377187380416708962e-01 1.516839917732758780e-01 1.395053725214965734e+00 -2.199617596030088773e+00 1.191246340785171887e+00 2.625037480823143810e+00 1.073501312681513387e+00 3.073851615484220479e-01 -1.337469802531104091e-01 7.744543111157188575e-02 -8.599312924229847166e-01 -1.193284558196618939e+01 2.829538775641462500e-01 -1.566749580943105569e+00 -1.873363468032653412e+00 -6.735511656591198770e-01 -7.271126747381917443e-02 1.311682545565222291e-01 3.040330483257548622e+00 -2.966261050310863734e+00 1.185437639850619868e-01 -1.081325348685784338e-01 -7.572145438479206403e-01 -1.687189818656111562e-01 1.831220559978085638e-01 -1.503523819233529568e-01 -1.335428292944800255e+00 4.242510532188590311e-01 -1.604878439511832344e-02 3.822134918456891572e+00 1.186296171171121294e+00 1.569397375421291152e-01 -8.328048494412397529e-02 -2.001631760497836421e+00 -6.296293486913736581e-01 -1.341474523013915787e-01 2.933082882259697710e-01 1.376568710366049997e+00 3.298923927713530609e-03 1.935119484962209979e-01 4.013575449839515419e-01 -2.376635789858525805e-01 8.465635885554857465e-01 -8.669511429793391732e-02 3.535970148809274016e-02 1.982657907055783708e-01 4.270879736949888261e-02 -5.279602301867905023e-01 -3.906315814047663926e-01 -1.150158483650206787e+00 -5.176860529797741028e-01 8.094263015068884348e-01 -1.124633527289562451e+00 -7.218549131254019535e-01 3.783205118512789067e-01 -5.551733163035380558e-01 3.099564384900073688e-01 2.349776775363429937e-01 -3.422307377048041110e-01 -9.794017857263251914e-01 -1.337894413635579427e-01 -5.086408915817183241e-01 2.204966458315284206e-01 2.872803674045558697e-01 -7.247637401388383749e-01 -1.566669982919914883e+00 -3.838540222331920382e-01 -2.224267003195451453e-01 4.371691013957679783e-01 -6.785718543892203802e-02 -8.013919652382696102e-01 4.028501376838294346e-01 2.462487764038785887e+00 -1.393357757268597064e-01 2.988539467023976659e+00 1.451072119168691499e+00 1.805140507752358570e-01 1.196966076206776169e-01 4.027811052834891492e-01 -3.712173310615726751e-01 -3.895001404185498006e-01 8.487044090514086481e-01 4.801365640929302625e-01 2.637147714259531650e+00 1.388827135069949925e+00 -1.336051619445270955e-01 1.722456255415695692e+00 -4.890858485889610363e-01 -5.207871624091512386e-01 1.728973796553359976e-01 3.613555219981992028e-01 4.617139612613955224e-01 -1.002074798667820510e-01 -2.935427846205925784e-01 9.798743978227976159e-01 1.059760815369546055e-01 3.227333173761686713e-01 1.275883069393785707e+00 -7.227073266619292724e-01 1.051986540704120232e+00 -2.430023526965905400e-01 -7.541187162425033730e-01 1.155091222553941144e+00 6.302695068887346208e-01 -9.919554133927224182e-01 -7.519226417987855404e-01 7.872759768163800631e-01 -5.781028344416836440e-01 5.857447888192912622e-01 1.228799226818213741e+00 2.584829075532366627e-01 1.460034557947198719e+00 9.117028899016894616e-01 2.046204788621351356e-01 -9.238732547738045531e-01 -1.578465751502844960e-01 1.642036832433262650e-01 -4.443643771535774056e-01 2.025448530377718992e+00 3.357949577393409157e+00 -6.236905233209080190e-01
1.482117325699122468e+00 1.162274622327098772e+00 -2.216400576387790089e+00 -1.320338941099729491e+00 -3.738304162901586736e-01 -1.179626781055494567e+00 2.414313755445675058e-01 9.811477267644626021e-01 -6.041052688998183040e-03 -2.100487139002721992e+00 6.583935253210096428e-02 -1.967376111030058494e+00 7.088248119802921243e-01 8.221393946685804366e-01 -2.334980633975405895e-01 -5.569689895782163891e-01 -3.720941796583293604e-01 -1.398616209658095355e-01 2.330772284180870069e-01 2.113733453445480470e-01 -1.088134645528687106e+00 -5.708655609172542944e-02 5.331441485042736073e-01 1.520401879831820291e-01 1.341391293261314788e+00 -1.911483218842587595e-01 5.601779281036587399e-01 -4.371478902661493637e-01 1.715584516915863167e-01 -5.750449746416770314e-01 -3.395145654438451732e-01 1.855805531443367684e+00 -4.908338475379924182e-01 1.426934506302390160e+00 8.348128313116268684e-01 1.784278384284903263e+00 -7.803200004156038982e-01 -1.581726201739208193e+00 -3.028366786388487775e-01 1.560362742875800901e+00 -4.097255255433220056e-02 -1.589200034979830978e+00 3.411126622704222289e+00 -6.116135893517988809e-01 -5.228919224647624597e-01 -1.396175569304017650e+00 -1.520737160958930134e-01 1.469232177871598655e+00 1.572413857120296798e+00 1.103711667619340808e+00 5.731397695839983708e-01 -3.483141408452167798e-01 -3.182769046829842519e-01 -4.197082596060551229e-01 -2.523522290988975847e+00 -6.648916572530244595e-01 -4.051180847715009747e+00 -2.815305113941915516e-03 2.811668613049897569e+00 7.293428202390197512e-01 1.100392095495522637e+00 1.152275144290316966e+00 7.034604509068553835e-01 -2.522542515057748957e+00 7.258266323075894810e-01 9.418615335151003798e-01 -1.541338475709331524e-01 -2.075386442345190374e-01 -5.411227727056843184e-01 -2.433780729804289944e+00 -1.327830280282002118e+00 5.294395743003921240e-01 2.284439007488580753e+00 -1.658545723600549193e+00 -1.481970115136738597e+00 -6.908684950978963846e-01 4.437368074766837034e-02 6.747624954741524572e-01 -4.569112684866463714e-01 1.001239973386574178e+01 -1.210697697083741309e+00 -7.182940730262148410e-01 -4.768361623261540561e-01 7.308216297846921172e-01 -6.957760246715681829e-01 6.626342620176088882e-01 -2.004526592198024204e+00 1.036869493783574514e+00 -6.746253309285523692e-01 -2.948493370618970183e-02 -7.084369082513581883e-01 1.549573691489986027e+00 8.360525446256997784e-01 8.747083787555262058e-01 -8.302609982182925785e-01 -2.699721172135310585e-02 -5.822048766036033163e-01 -1.141965506344648329e+00 2.648000729476566173e-01 -2.155575867458218442e-01 1.227812674823144157e+00 -1.789440682560324847e+00 -2.935118265319930919e-01 -9.163828970876719548e-02 1.529616278198781432e+00 8.334104917198519313e-01 -2.654850750348191624e-01 9.516552536171346555e-01 2.349831038705483266e+00 6.968965169011591687e-01 8.953873087512809192e-02 6.836213790878475915e-02 -4.443795894610895192e-01 6.379273500521735751e-02 1.654938225906571470e-01 -8.090774644257086035e-01 7.479468141496942168e-02 -2.479414845085861629e-01 1.439030106709629608e+00 -3.388554345042179561e-01 -7.924605466999490311e-01 -4.196884791091307076e-01 5.520157346243170782e-01 3.944125649319390470e-01 -1.605574491575384677e+00 -3.131706604508670971e-02 5.494508975258260985e-01 -1.916928459291499687e+00 1.370609804506533358e+00 -1.020205047351408351e-01 -5.382651116651580026e-01 9.659614855381201126e-01 3.026422990508598199e-01 8.167852140951178952e-02 -1.074016702918618171e-01 5.743735404885491613e-01 3.539016602127172950e-01 1.187132660675884521e+00 4.776899838518559593e-01 6.474090482690925130e-01 1.230122729325544340e+00 -5.258876662607153696e-01 -1.200220033727883995e-01 -2.315319243601388632e-01 6.782166790882239171e-01 7.630265659763366126e-03 4.353625359777888448e-01 2.582601748435895961e-01 -2.472715508243434890e+00 5.388701008358779410e-01 1.365446333767395271e-01 -5.608419121247664174e-01 4.893567874421402841e-01 1.173810151652800116e+00 2.228205694059383069e-01 5.837722775874777392e-01 4.111382412420803156e-01 -1.218477082828533176e+00 3.200942863210143319e-01 -1.160911547390022447e+00 -4.191490792006072330e-01 -2.639909312899264560e-01 -1.545056886955115949e-01 -7.777520051319236627e-03 7.838102916620139915e-01 -1.176741818539525641e-01 -7.367483433287480565e-01 1.411659594838318377e+00 -1.547006258112003652e+00 -8.945001376577473851e-01 3.677851072214453620e-01 4.027099883741357411e-01 -1.043516908640186314e+00 5.765714994137405291e-01 -1.689485344365453612e+00 3.367023276312836599e-01 -7.212683111675471936e-01 -4.552061734537507509e-01 1.427299499079309406e-02 -7.817913346140448194e-01 -8.457177416714141138e-01 -1.530933864111796217e+00 -3.075485920019243591e-01 2.269422347298205800e+00 1.629617513486722458e-01 2.233567749666861335e+00 5.961830742382770998e-01 5.655982432917038283e-01 2.271493891409945398e+00 3.471386725615394769e-02 -2.170998998850902362e-02 -8.756400588665007589e-01 1.675603142306017146e+00 5.012474580250727424e-02 2.847887696632757648e-01 -5.091600971228182893e-01 5.143608752701865905e-01 -1.830656704742685548e-01 -2.918787194001275509e+00 5.470405999890726179e-01 5.694681966684473906e-01 5.317544306802607368e-01 -1.281752100868753130e+00 -8.832324157130024833e-01 1.545567522348476164e+00 -1.592905294320451803e+00 2.824843730962183219e+00 1.367873306560987712e-01 -1.506276128079698351e+00 1.260468614051988012e-01 -1.479339017495850062e+00 -4.282977323920599266e-01 -4.310926562297853065e-02 4.988039767173340078e-01 -2.560377673781962793e-01 -2.524801605608076316e-01 -8.608465536275804464e-01 -2.531333528253104648e-01 -1.407875921239558403e+00 -1.634263254183350722e-01 -8.372071712485679162e-01 6.222799244969224874e-01 -1.521103362246370105e+00 9.152152743503858545e-01 -1.899291300766617341e-01 -7.562523165910484124e-01 4.834176167383359979e-01 -1.067630462088548171e+00 1.858866714922084024e-03 -6.737340251501146016e-01 -1.808114127528596571e+00 2.900910059852857513e-03 -1.260858387667537217e+00 1.096016113693558225e+00 -1.160910998940632294e-01 -9.100543351424167371e-01 -5.394232467115209761e-01 2.855642290398181515e+00 9.394478138015268653e-01 1.112418281913934992e+00 -1.496129699477570241e-01 4.634155715158521649e-01 -3.339299605138848492e-01 -4.553980022168228059e-01 2.594332382970719331e-01 9.357235723386746196e-02 -1.692393205413169843e+00 -2.850646240741468440e-01 -4.239168382252891387e-01 2.090912859846917105e+00 1.952262385059971850e+00 3.420242690104739469e-01 1.590945514336580824e-01 -2.536617360385555187e-01 7.837509517266970649e-01 -7.664328900593087024e-01 1.386192301105778846e+00 -1.263575916488334672e+00 9.634916672588014208e-01 -8.850513844159846322e-01 1.206939277267241817e+00 5.518357910107620778e-01 -9.546316613331452539e-01 -4.355397751588078181e-01 5.357125710912117450e-02 -8.031504203809449738e-01 9.792307912476597709e-01 -2.189104244324206583e+00 9.100609290890042669e-01 -1.919644352845391588e-01 -1.803055955967131085e+00 -1.895708770306461233e+00 4.388565483068089246e-01 -7.639350105126829771e-01 -7.607458010809642346e-02 4.923126519220356601e-01 -6.909051604861219387e-01 5.609684513812098761e-01 -1.187061693531227119e-01 2.129605298303101912e-01 -1.772010156589888252e-01 -6.407001593118857308e-01 5.206521404719510748e-01 6.284381179538512940e-01 1.734336126165186842e-01 2.863807759882029957e-01 2.264091641890854031e-04 -2.947380258002079145e-01 -7.129881996451596926e-01 -1.191388562537429724e-01 -8.160577132856382532e-01 -9.299193524115971776e-01 6.523906391545660766e-01 2.972502802286615342e+00 -1.161040072415180646e-01 -6.650358997054156562e-01 9.092018270935100510e-01 -7.310346404576263390e-01 1.043209292101683894e-01 1.890856845837038946e+00 2.597270030784480710e+00 7.410700044793001595e-01 -6.146596697090361827e-01 -6.968418329805995404e-01 6.167247063477646618e-01 6.520521840693827009e-01 -9.103683708849404921e-01 -2.179603222153849273e+00 5.801656657652632942e-01 1.988082120617101489e-01 -2.654392145139284676e+00 -3.661635294793866846e-01 5.121842555814082321e-01 -2.341736332689635380e-01 1.053634540892220750e+00 -6.937510031919318365e-01 3.225132550140152432e+00 -2.133794978197117442e-01 6.828479244331948916e-02 1.764928216127823690e+00 9.879220338124951040e-01 -4.555839415793454528e+00 -3.860444529590111029e-02 -4.457535426202209605e-02 1.655486038115971947e+00 -3.207734888734464773e-01 6.671044778225043714e-01 9.374857407408233589e-01 -2.262354581901557804e-01 -4.514108358445005909e-01 -2.253747676327604033e-01 2.596441593623817767e-01 7.083845780148447790e-01 -2.989434452743232329e-02 -1.948793258329353795e-01 -5.750573755748052962e-01 -3.723084922902208049e+00 -1.612386000838596234e-01 3.840342483674818452e-01 4.110596884722516470e-02 -3.720018890678519763e-01 4.617927354959773800e-01 -1.474643144699071956e-02 4.345077878716531172e-01 2.780722384911332723e-01 5.785593447757534369e-01 2.865395649635098518e-01 5.924913576577471863e-01 -9.282665028439572585e-03 -4.264504512880905596e-01 -1.657365417356112536e+00 1.414864430452345889e+00 -2.501703076332996822e+00 -1.233264060174962817e-01 -3.498382654079278953e-01 9.630663463656349288e-01 -9.133893054741479833e-01 -2.803276359642170590e-01 2.057912503039063812e-01 -6.719413296520987400e-01 3.752074854001961501e+00 -4.816847653784411265e-01 2.145629847649505262e+00 -1.187565296992174613e+00 -2.711505685472631044e-01 8.532895263160183985e-01 1.281004092664039806e-01 -4.933097586108588506e-01 5.177243941700283569e-01 8.905966579589263965e-02 1.300203914290582574e+00 -9.184672388626033968e-01 -3.389632041363857540e-01 -2.554704635470949059e-01 8.961481824162785548e-02 -5.144890395311362274e-01 -3.161596006230377176e-01 -2.768526670143660606e-01 5.451423658303521380e-01 7.520433489544702255e-01 9.684430012130987309e-02 -2.384483949758586241e-01 -1.867075831232229977e+00 1.048507215877344745e+00 -2.915208746422188746e-01 -1.417171690294945219e-02 -1.054453613088265768e-01 -5.347072637972778431e-01 -1.382581404709931849e+00 -1.313600149902818814e-01 4.786378753630588512e-01 -4.881537214669694480e-01 6.867108162536968985e-01 -5.596571336691396059e-01 -1.953800437229198383e-01 1.280496530587741100e-01 7.837005067556753746e-01 4.855198121116315879e-01 -6.831536595698342040e-01 2.078773728358980666e+00 -4.499512296342149664e-01 -4.589539348285894826e-01 -2.887385986848260422e-01 -3.855780123669557136e-01 1.342488456472286540e+00 8.315969943646093210e-01 -7.736920336394605968e-01 4.595780605762327803e-02 -5.944734255577673876e-01 3.436908673526897218e-01 1.085982846348598763e-01 3.905054505373355966e-01 -3.461591418034967171e-01 7.705399397129157890e-01 -4.102138631076454045e-01 -1.154731433451345116e-02 1.328117788304426228e-01 -2.040398631547119646e+00 -6.354537849065999833e-02 8.576827138184267563e-02 1.704157260180924963e-02 1.090484619014391754e+00 -1.093898840118760596e+00 -9.900068308794297833e-02 7.991783111746866286e-01 -1.177103812767694935e+00 1.639314113205309953e+00 -3.483828055615100783e-01 -2.110018291983955407e+00 1.301943966756489712e-01 2.358914871753940018e-03 -6.750224148991879058e-01 -1.667416659207074936e-01 1.670429418080239481e+00 -2.620991271231504438e+00 1.272673563162988630e+00 3.861445920592408432e-01 -1.421958290517815193e-01 -1.569633849244281981e-02 9.242301948801215916e-01 -1.520764765573144051e-01 5.833306271933954568e-01 6.786855076300221112e-01 1.366853837276443828e-01 -1.375027942431372718e+00 1.174443647255646095e+00 -4.689678502072873734e-01 -1.628144925909424112e-01 -4.470873412377932565e-01 2.866283124961137019e-01 1.591972944666502077e-01 1.595427844863656075e+00 -9.715069362732295932e-01 -4.976283713468727665e-01 7.963170031534102522e-01 1.539034182111558735e+00 1.236451943688970490e+00 -1.045340001174946964e+00 -3.163210198492016345e-01 8.349319406599814419e-01 1.800436870109509924e+00 -1.023962982136754213e-01 -9.181283250482661362e-01 3.703386770458478305e-01 2.050405971147416587e-02 -3.099246164487864386e-01 4.070583576433579043e-01 1.461498730566913318e-01 -1.207195236805673311e+00 2.258551191838799710e+00 -7.910719217279922333e-01 -2.765943265182275179e-01 3.289566996085953043e-01 -1.652096057765979342e+00 1.360947584121364962e+00 -3.499947087384240874e-01 3.824754745030811698e-02 2.931528145935668461e-01 1.493232227148567848e+00 1.768824785009709410e+00 6.660251237254674050e-01 -6.069666122824722843e-01 9.819285869730085548e-01 4.895965650477044906e-01 1.132460131619569266e+00 3.567692566782334485e-01 2.661068030064032142e-01 5.422950815419057546e-01 -2.143693083838960345e-01 -1.419350649450134672e+00 -2.917113692132870195e+00 -1.322578976018005115e+00 1.106705655338269700e+00 6.182743686950483708e-01 -3.139127709644546904e-01 -1.131933171954131678e+00 -2.345651518936711977e+00 4.942359353680390033e-01 -8.329692026943356087e-01 5.902551428048241622e-03 -1.371066990646902239e-01 3.688348501417836323e-01 -9.675373848270865107e-01 -1.030790169782962229e+00 -1.386890120872778187e+00 -1.780638510102376948e-01 -1.390341569232379726e+00 1.417913328688338581e-01 1.093191295229354765e+00 4.300801927209478293e-01 5.866458742088945799e-01 -1.280219612883849001e+00 -2.424301808482433263e+00 6.771160435301168956e-01 -3.072134535695788538e-01 -7.110018948269003491e-01 -1.395767385433849539e-01 -2.001533415372800384e-01 7.971554342730379217e-01 2.049859352150655012e-01 -1.442557999725270435e+00 5.736111553194930823e-02 2.150200982987958032e+00 -1.125143922317007328e-01 -1.002737833593635219e+00 3.068522501223030385e+00 -1.202846541429172245e+00 1.134377597816127015e+00 -8.716762936268683815e-01 1.223455061032535207e+00 7.319641837200177026e-01 -8.693629229337742625e-01 9.254919507225527475e-01 3.883298974421831029e-02 3.546025648037821054e-01 -2.022478711531092987e-01 -5.793702635430908465e-01 -1.722956460916416965e+00 1.599517013266575471e+00 5.020196160503885840e-01 -6.691484118510150347e-01 2.295627506203544499e+00 1.979301836412537818e-01 3.504939485315283765e-01 3.715213552465708724e-01 4.056239997866319391e-01 -4.527745896343371435e-01 1.878537132438367951e+00 4.505589714937087820e+00 2.179802955359353422e+00 3.989091347264189236e-01 2.539674480040435833e-01 -2.470952951273532316e-01 2.522443743283775963e-01 6.528980722486645016e-02 5.288950375854618580e-01 -3.366830013315327275e+00 -5.444451349607906665e-02 -2.398823360702131424e-01 8.289705303053318541e-02 -1.024106635417848521e-02 2.982997308944304926e+00 -2.240108957967187064e-01 1.219091834043180445e+00 -4.874793797242017029e-02 4.975435965142213091e-01 -9.603789153866559847e-01 -1.527214390680344258e-01 7.511601690842047985e-01 -1.557031021036208163e+00 -8.032550133161711070e-01 8.481250570661067467e-01 -3.160988479320028799e-01 -1.017732335062556226e+00 -1.546078855506243910e+00 4.757165391511358199e-01 -3.173703731672539163e-02 7.572887249048564084e-02 -1.025547049257647808e-01 1.373570836767044945e+00 -4.673642267149907825e-01 -5.653392806436056128e-01 9.644299354352144915e-01 -1.536549622483728561e-01 3.552647666206813076e-02 -9.540751117041587070e-01 6.079117634509824120e-01 -8.368707849346342098e-02 -4.665765341845223291e-01 1.551896148165414324e+00 7.906444422219276458e-01 1.280714890215261526e-01 9.484994591555816479e-01 -4.438454883441259602e-01 9.789447668860911111e-01 -2.931712318565749542e-01 -4.128166115849021267e-01 1.769509150116252094e+00 6.346172716163545058e-02 1.601215467767705292e+00 1.042193538236792838e+00 1.716959030744473480e-01 3.337979619347847260e-02 4.544860203108448404e-01 -1.369450319683921169e+00 1.383127305426777198e+00 -3.002669853296999897e-02 1.079340209374081594e+00 -9.134351988052884508e-01 -3.963557104346289162e-01 8.894266965997077445e-01 8.095719029461612148e-02 1.595288457797933157e-01 1.147098378734137114e+00 -2.461474465759138641e-01 1.391000959572109841e-01 4.032927270833806532e-01 4.805332274413076643e-01 7.487644776415973702e+00 2.832871813935872868e-02 1.129071648117374038e-01 -1.039080201652735624e+00 3.892118699861374376e-01 -7.451204016881352032e-02 -6.652452421881506206e-01 -7.512346802197762408e-01 1.711875974305050174e-01 -2.033860139619312335e+00 7.438086179890746052e-02 1.424657890873725144e-02 9.644292914517740289e-01 -1.543778730067974392e+00 4.703476554606582649e-01 1.576909924653805695e-01 9.805867852807712004e-02 1.386556423198167520e-01 -2.686185759262356587e+00 -1.528178577561747131e+00 4.034762436599569346e-01 -7.617126021860115559e-01 -1.045888319254000720e+00 -2.482615179553797902e-01 6.020230613574319989e-01 -5.039335143212132495e-01 2.202529726616018202e+00 4.078375029335827295e-01 1.401261237256570702e+00 -1.074997443187294538e-01 -2.021194081407508558e-01 -1.786473448671689890e-01 3.420710121494301842e-02 -3.506647519591544193e-01 1.381384406381086949e+00 -8.093224338784122951e-01 -2.632346669836332698e+00 -1.124141335153066246e+00 5.907941941315810741e-01 1.322522269346967372e+00 2.959068102440951531e-01 1.408789114093561112e+00 1.157474281244720293e-01 -3.337472540781599717e-01 -9.104363983436490615e-02 2.380248681906413644e-01 -1.129447508621715945e-01 -2.199954251792551330e-01 -2.930041133775413975e-01 -1.054991941019509216e+00 1.590153481236276090e-01 -5.345415373438475726e-01 1.107739626015344259e+00 4.481809417819731522e-01 2.859312420890456341e+00 -8.540685203671370962e-01 -7.943944331165954387e-02 9.844826958648802417e-01 6.416709900130401767e-01 -3.560346434126996328e-03 -1.265591350576744101e-01 -1.597006394453337752e-01 1.007901456956453307e-01 2.961467365213226177e+00 -2.814631037922709744e+00 -9.925099860147783559e-01 -7.483238991287495256e-01 1.394474502675180638e-01 2.237847363122954514e-01 -1.224960653460019644e-01 8.586339518771003432e-01 6.030837676099694455e+00 -4.076719995103314509e-01 -1.224939384564834588e-01 -2.266384229921020399e+00 9.144322456500239560e-02 6.679983686870742954e-01 2.140518588716272264e-01 1.868946364749651368e+00 -3.831556191398268751e-01 -1.993609792401597858e+00 -6.704570901228948943e-01 -5.148362279248950291e-01 6.369323167147407094e-01 3.597081322731038866e-01 4.753056429051211174e-01 -2.282186108782340572e-01 -1.226165326051950472e-01 -9.885446397247109607e-01 -9.535176744975643048e-01 -4.306572830610788660e-01 2.887507039447601009e-01 6.693752898176547061e-01 -5.015463665578324959e-02 -6.872942009024407550e-01 5.838250592556298857e-01 -6.166890012971630863e-01 2.512980582911772398e-01 -1.560468732939342962e-01 -3.628423820547329037e-01 6.598357109766337381e-01 -5.709163816370412814e-01 -6.957494781311824861e-01 -3.599555013508002332e-01 -2.679005059300624270e-01 7.064802538099231866e-01 4.928173122029100850e-01 1.226723753935154287e-01 3.312779742602203203e+00 1.363251535019080141e+00 -4.867366921311871431e-01 -4.478295383091723814e-01 3.984793306592003259e-01 -1.592344532791921008e+00 -1.011507068780577168e+00 -2.608960354667356207e-01 3.480254668727669753e-01 7.098990690790030200e-02 8.659316145613491500e-01 2.214584609128740222e-01 3.469469460682031436e-01 1.387853276201812980e+00 6.973551761034831042e-02 -1.337485242250432194e+00 1.518347613261790130e-01 4.622178336044985292e-01 -5.371848575896750466e-01 3.570337191463907600e-01 1.074193776426893177e+00 -5.654550725717609749e-01 2.193960804146348309e+00 2.676676758416382529e-01 -1.468706661388694990e+00 -2.339660976311497831e-01 -1.226548782721460645e-01 5.732277539591520421e-01 -5.807910056463443382e-01 -1.294946772141802649e+00 -1.441908769989947547e+00 -2.215882368595244734e-01 -7.574327246083704113e-01 4.651697671437983184e-01 -1.174951715474260361e+00 -3.143996519661951261e-01 -2.232375178896299772e-01 -9.032193050052965688e-01 -1.830601439255338025e+00 -4.803278895362712853e-02 -5.748024031261148581e-01 6.688096754498974450e-01 -2.700747389789477371e-01 1.767491092907568229e+00 5.751220493241391285e-01 -8.552922492944659005e-02 6.487563691834734303e-02 1.008455679283253748e+00 -2.076210687114265596e+00 1.238620688725297070e+00 -1.262929346105269079e+00 -2.075192750249912343e-01 -5.690441883399054435e-01 2.159468017152750718e+00 -9.036603672930207942e-01 -4.781353153533025035e-01 -1.566780827553057254e+00 -8.252522037461090809e-01 1.598577604179705958e+00 -1.385538849725205246e-01 -7.877916343039970126e-01 8.864030661505293285e-01 2.241580918054664195e+00 5.965674696335061533e-01 -2.182296840106510150e-01 5.942063363866834091e-01 -8.205060678909251726e-01 7.551886978374595660e-01 1.346414695813762830e+00 8.493696145069821180e-01 9.254293199789208613e-01 2.383319575205872454e+00 -1.918903110869965012e-01 3.138594600378509791e-01 2.487720110940416784e+00 -1.372031724774986250e+00 -3.543920168376625934e+00 1.273248882944544969e+00 1.093949698240304302e+00 -6.950164190965997246e-01 -8.670872817230533824e-01 2.133899278691973489e+00 7.413404762708151186e-01 6.843996815157490365e-01 7.859951156973564723e-01 -1.011176289476198420e+00 -5.403201276045804802e-01 -1.236334549625317747e+00 5.134524970471067151e-01 -2.150822422171652537e+00 -2.656946165171791829e-01 1.109285018217458951e+00 -8.673443012521648843e-01 -1.759533717759723392e-01 1.235152707108807535e-01 1.243529569439585591e+00 1.453252699636575773e-01 -2.266595009047165099e-01 -7.911485915565463767e-01 -3.454238795228663950e+00 -1.884607603092268491e+00 2.595869927514879993e-01 -1.208627023596219985e+00 2.633222904024863364e-01 -1.661148272461043240e-01 1.118914188808925125e+00 9.960229773180107049e-02 7.832878274960428655e-01 1.768664286942989383e+00 7.577003447703729577e-01 -4.985701641624741498e+00 6.286648789047991626e-01 4.524988218573119392e-01 1.916841169492557562e+00 -3.359331288214718381e+00 1.001594920260450827e+00 2.795225703746466728e-01 -8.762596558398830782e-01 8.557432420889530267e-01 -6.332845648141064432e-01 7.708803862297890497e-01 -2.837704357785561515e-02 1.837532430825176366e+00 5.461127662084231948e-01 9.754787022472356517e-01 -3.700749318247195663e-01 1.010703971703334370e+00 7.015750920920249545e-01 1.567684906104423459e-01 -3.944830378683684136e-01 -8.234657293688051327e-01 -1.215009215379023733e+00 -5.772078631717636465e-01 2.405896110696904788e+00 -2.174956629449577850e-01 -3.331638450301421805e-01 -1.001835564298101611e+00 1.201769662633754177e+00 -2.724293937060985882e-01 -4.134838891624530444e-01 8.147062604895740634e-01 -1.186338441781699338e+00 3.185686205741723453e-01 -2.612029991845492005e-01 -4.341587110271772909e-01 4.810555785421288810e-01 -2.358228456498206338e+00 2.081302829403178567e+00 5.768440937875742858e-01 -1.962929364183988723e-01 -1.426345200764505661e+00 -3.641553517347753677e-03 4.197025753271340420e+00 1.140156259769333991e+00 -3.060149570094081173e-01 1.641693616184394910e+00 7.144695076488770669e-01 1.850150629086295961e-01 2.131194421091308744e+00 8.727062061243241464e-01 -8.199771074613332322e-01 -4.545871208022225218e-01 -9.760882198203247873e-01 1.487613585383310011e-01 -8.036780970770234234e+00 -1.320126124386969080e+00 -5.042155579310814151e-01 -1.131316746189282796e+00 -1.803199733484914802e-01 7.793367518783578252e-02 6.604907729999866250e-02 -1.740784748531985393e+00 3.675670187565296398e-01 -9.697759501888364442e-01 -1.034498278376253244e-01 4.448018434044748171e-01 8.343247005988830844e-01 8.591191281813134184e-01 8.666099491360823581e-01 1.806049879639415767e+00 2.311033322684392100e-01 1.203880729705388564e-01 2.523662168141680873e+00 -1.564386560733553422e+00 2.642960323044057924e-01 -1.529355339904999944e+00 1.389832004014348366e+00 1.482431701769896693e+00 1.586634537345224527e-01 4.737315595439433036e-01 1.941411868420205966e+00 -5.805426652697527334e-01 1.740932389383983203e+00 4.729310059792939946e-01 -1.070934270639652297e+00 5.885881650825375289e-01 -1.159217396853433335e-01 1.834195809639235453e+00 2.682000151967426152e-02 -7.805186132903362273e-01 6.461575080138919347e-01 -2.451765230323555561e-02 4.016961340587871798e-01 8.398502607314721757e-01 5.328638034093517994e-01 -3.271265701572357298e-01 1.296992151609940525e+00 -5.384893769003068487e-01 2.253424179811202299e-01 5.874044779299799623e-01 -2.910811085901224282e-01 -3.322736349054542071e+00 -1.004857824506599551e+00 5.319037121036762628e-01 1.360166441676022631e+00 7.556030037570161673e-01 7.449573583200742588e-01 -7.949976724873945855e-02 4.502752410992601484e-01 -1.603001605443966915e-01 -6.876748978683189240e-01 -9.174209587220192308e-01 -8.206340946204720987e-02 1.423433411907224277e+00 2.446578072613312949e-01 -4.476076144926706135e+00 2.514628572684109512e-02 3.253333344522178483e-01 2.082707353518342686e+00 9.456104041161340623e-01 -9.514886575522708556e-01 2.283748399706846122e-01 -7.795432409309310806e-01 -5.831374265381784605e-01 1.605589031462695493e+00 -1.787472272620131974e+00 -1.292610713321722837e+00 8.009266595025862356e-01 -2.169655316778120180e-01 1.404016491548040868e+00 -3.349655063141734335e-01 -1.158551012783897161e+00 2.357261786213139754e+00 -1.739629360806624683e-02 4.823221354705474750e-01 -5.363733781366190057e-01 -5.290271602802669726e-01 1.397723985288219728e+00 -1.215882441623590271e+00 6.718875266158046422e-01 -4.222272528555370386e+00 1.555887563848522781e+00 -3.396050742841652870e+00 2.671416757941387776e-01 -5.035476030206197384e-01 -4.698633665972837825e-01 -1.981735530604380902e+00 -8.784323521085031228e-01 3.125478375127917818e+00 -2.782025278368157606e-01 -2.255246072041745098e+00 1.064366767009248926e+00 -2.280432751176764139e+00 -1.325639847128400994e+00 -3.180496343429721207e-01 -2.223852835336975531e+00 -4.878591995270355475e-01 -1.729168385015295295e-01 -5.936054759325084529e-01 9.922163328911351443e-02 -8.041457841494446812e-02 1.056641696984711665e+00 1.856565957833938851e-01 -9.663208176772243307e-01
