# 
#                 ----------------------------------------------------
#                 Data from a 3D direct N-body simulation. 
# 
#                 rows are i-particle; 
#                 coumns are :mass, tag, x ,y, z, vx, vy, vz, ax, ay, az
# 
#                 NTHU, Computational Physics 
# 
#                 ----------------------------------------------------
#                 Time = 0.0
1.000000000000000000e+00 2.000000000000000000e+00 3.000000000000000000e+00 4.000000000000000000e+00 5.000000000000000000e+00 6.000000000000000000e+00 7.000000000000000000e+00 8.000000000000000000e+00 9.000000000000000000e+00 1.000000000000000000e+01 1.100000000000000000e+01 1.200000000000000000e+01 1.300000000000000000e+01 1.400000000000000000e+01 1.500000000000000000e+01 1.600000000000000000e+01 1.700000000000000000e+01 1.800000000000000000e+01 1.900000000000000000e+01 2.000000000000000000e+01 2.100000000000000000e+01 2.200000000000000000e+01 2.300000000000000000e+01 2.400000000000000000e+01 2.500000000000000000e+01 2.600000000000000000e+01 2.700000000000000000e+01 2.800000000000000000e+01 2.900000000000000000e+01 3.000000000000000000e+01 3.100000000000000000e+01 3.200000000000000000e+01 3.300000000000000000e+01 3.400000000000000000e+01 3.500000000000000000e+01 3.600000000000000000e+01 3.700000000000000000e+01 3.800000000000000000e+01 3.900000000000000000e+01 4.000000000000000000e+01 4.100000000000000000e+01 4.200000000000000000e+01 4.300000000000000000e+01 4.400000000000000000e+01 4.500000000000000000e+01 4.600000000000000000e+01 4.700000000000000000e+01 4.800000000000000000e+01 4.900000000000000000e+01 5.000000000000000000e+01 5.100000000000000000e+01 5.200000000000000000e+01 5.300000000000000000e+01 5.400000000000000000e+01 5.500000000000000000e+01 5.600000000000000000e+01 5.700000000000000000e+01 5.800000000000000000e+01 5.900000000000000000e+01 6.000000000000000000e+01 6.100000000000000000e+01 6.200000000000000000e+01 6.300000000000000000e+01 6.400000000000000000e+01 6.500000000000000000e+01 6.600000000000000000e+01 6.700000000000000000e+01 6.800000000000000000e+01 6.900000000000000000e+01 7.000000000000000000e+01 7.100000000000000000e+01 7.200000000000000000e+01 7.300000000000000000e+01 7.400000000000000000e+01 7.500000000000000000e+01 7.600000000000000000e+01 7.700000000000000000e+01 7.800000000000000000e+01 7.900000000000000000e+01 8.000000000000000000e+01 8.100000000000000000e+01 8.200000000000000000e+01 8.300000000000000000e+01 8.400000000000000000e+01 8.500000000000000000e+01 8.600000000000000000e+01 8.700000000000000000e+01 8.800000000000000000e+01 8.900000000000000000e+01 9.000000000000000000e+01 9.100000000000000000e+01 9.200000000000000000e+01 9.300000000000000000e+01 9.400000000000000000e+01 9.500000000000000000e+01 9.600000000000000000e+01 9.700000000000000000e+01 9.800000000000000000e+01 9.900000000000000000e+01 1.000000000000000000e+02
1.000000000000000000e+00 1.000000000000000000e+00 1.000000000000000000e+00 1.000000000000000000e+00 1.000000000000000000e+00 1.000000000000000000e+00 1.000000000000000000e+00 1.000000000000000000e+00 1.000000000000000000e+00 1.000000000000000000e+00 1.000000000000000000e+00 1.000000000000000000e+00 1.000000000000000000e+00 1.000000000000000000e+00 1.000000000000000000e+00 1.000000000000000000e+00 1.000000000000000000e+00 1.000000000000000000e+00 1.000000000000000000e+00 1.000000000000000000e+00 1.000000000000000000e+00 1.000000000000000000e+00 1.000000000000000000e+00 1.000000000000000000e+00 1.000000000000000000e+00 1.000000000000000000e+00 1.000000000000000000e+00 1.000000000000000000e+00 1.000000000000000000e+00 1.000000000000000000e+00 1.000000000000000000e+00 1.000000000000000000e+00 1.000000000000000000e+00 1.000000000000000000e+00 1.000000000000000000e+00 1.000000000000000000e+00 1.000000000000000000e+00 1.000000000000000000e+00 1.000000000000000000e+00 1.000000000000000000e+00 1.000000000000000000e+00 1.000000000000000000e+00 1.000000000000000000e+00 1.000000000000000000e+00 1.000000000000000000e+00 1.000000000000000000e+00 1.000000000000000000e+00 1.000000000000000000e+00 1.000000000000000000e+00 1.000000000000000000e+00 1.000000000000000000e+00 1.000000000000000000e+00 1.000000000000000000e+00 1.000000000000000000e+00 1.000000000000000000e+00 1.000000000000000000e+00 1.000000000000000000e+00 1.000000000000000000e+00 1.000000000000000000e+00 1.000000000000000000e+00 1.000000000000000000e+00 1.000000000000000000e+00 1.000000000000000000e+00 1.000000000000000000e+00 1.000000000000000000e+00 1.000000000000000000e+00 1.000000000000000000e+00 1.000000000000000000e+00 1.000000000000000000e+00 1.000000000000000000e+00 1.000000000000000000e+00 1.000000000000000000e+00 1.000000000000000000e+00 1.000000000000000000e+00 1.000000000000000000e+00 1.000000000000000000e+00 1.000000000000000000e+00 1.000000000000000000e+00 1.000000000000000000e+00 1.000000000000000000e+00 1.000000000000000000e+00 1.000000000000000000e+00 1.000000000000000000e+00 1.000000000000000000e+00 1.000000000000000000e+00 1.000000000000000000e+00 1.000000000000000000e+00 1.000000000000000000e+00 1.000000000000000000e+00 1.000000000000000000e+00 1.000000000000000000e+00 1.000000000000000000e+00 1.000000000000000000e+00 1.000000000000000000e+00 1.000000000000000000e+00 1.000000000000000000e+00 1.000000000000000000e+00 1.000000000000000000e+00 1.000000000000000000e+00 1.000000000000000000e+00
6.042535951007452777e-01 6.450854913884880304e-01 3.684556471840704228e-01 9.224506627183847174e-01 3.366620149816206276e-01 1.176428009588950108e-01 6.546756638935734562e-01 4.188651521083475160e-01 5.800247986059081651e-01 7.746150638714899284e-01 1.720734517232946903e-01 9.398313218017056991e-01 9.764447405624580023e-01 9.605346074742918683e-01 9.352954656510862330e-01 8.458456573869873596e-01 9.916086014107137192e-01 9.126270788954868873e-01 6.385379978395150369e-01 3.466578834913730534e-01 4.151775577360893310e-01 3.880544455158612127e-01 8.704779744365198635e-02 9.522093821346389042e-02 1.843841193680485491e-01 1.475219991088883020e-01 1.079638966019214052e-02 5.610448795305047476e-01 4.750297219836894236e-01 3.008323652449246266e-01 1.083194048624629424e-01 2.258799464863865403e-01 9.664347234079266880e-01 5.535940808643503575e-01 8.178524922176189094e-01 8.514581625365736928e-01 9.141170020355116055e-02 6.230579284283880304e-01 5.008384833516457135e-01 6.979393366434565316e-01 5.733916963453939974e-01 4.997012230998967297e-01 9.713046284475727044e-01 7.032538158131483863e-01 4.318375087230531539e-01 3.514385861730651150e-01 3.205467523294599497e-01 4.683434281745858518e-01 2.810132580272007852e-01 6.144368944917574238e-01 5.606805637840802659e-01 2.419515794857818314e-01 9.743355707686668365e-01 2.837550651380807976e-01 2.548966301912602983e-02 2.508567770266220132e-01 7.466278295064470161e-01 2.559615441154872162e-02 9.746397975483823695e-01 1.431265477375043282e-03 3.169767306979373034e-01 8.466132154820137368e-01 5.817668747693582887e-01 1.819767802822414016e-02 9.227396435307999578e-02 3.670331168723240944e-01 4.024134278844858637e-01 3.448727254053557401e-01 6.573496721772225104e-01 3.366656376706901321e-01 6.915693782460415884e-01 4.208541898232712741e-01 5.557116482626116571e-01 1.283023567735001036e-01 6.349769974127610350e-01 6.676748002748610356e-01 2.251528589900431143e-01 7.698794084158180340e-01 1.196255412908093785e-01 8.283680860343837216e-01 2.425450902958933286e-01 6.720504339975735819e-01 9.341183228123517424e-02 9.676204322345598463e-01 5.927446701987479916e-01 6.336443625519373457e-01 5.488374608887699457e-01 9.655108811965473770e-02 9.801257199459108005e-01 1.880135181929060151e-01 8.795655423510142512e-01 2.492732798888730450e-02 3.274040984089343631e-03 4.347636894638776672e-01 6.225613248110302145e-01 2.725160866940693483e-01 6.761298611120465374e-01 1.799331863041877533e-01 9.720513284422931388e-01 1.389644354597741049e-01
6.795612411446074752e-01 8.310331598484046456e-01 3.722662698693290917e-01 4.195746422471048342e-01 5.110488894402931415e-02 6.576208622584086561e-01 8.239593549284930374e-01 4.891221128283882447e-01 1.953048189279767977e-01 2.361697910160441838e-01 5.759308538915037801e-01 7.303737497351491248e-01 4.070575949747287092e-01 4.999344766533948548e-01 4.671999617290847340e-01 5.245694894205394920e-01 9.231330768768346573e-01 8.310831135760730071e-01 7.252545494697010264e-01 7.955542872563450274e-01 3.590207578317292647e-01 8.554524859856472707e-01 7.742661687967834494e-01 4.547825288395644927e-01 5.324912780214963171e-02 3.575649363747248621e-01 7.456509523373248127e-01 2.835914675892177161e-01 4.392054717484565884e-01 9.422734086416719723e-01 7.972992653805821561e-02 2.501664228118307687e-01 5.869467199808646729e-01 1.569330135881402688e-01 3.635785494670765727e-01 5.059105684188685004e-01 2.899669751862933298e-01 7.213577268011124310e-01 9.989558292143515539e-01 7.489113103385269810e-01 9.755080395527685466e-01 5.248927254189896807e-01 7.244501440714345986e-01 7.480009661032025470e-01 6.123130032458405925e-01 5.229669989858211077e-01 7.863220130119796814e-02 3.696325478732973568e-01 6.712930748484137178e-01 1.787895183271048793e-03 9.853946251744776230e-01 2.631434996731120135e-01 6.489252342343057034e-01 7.620355880691233041e-01 5.030774795947060563e-01 6.296498232000724560e-02 1.296654930349867563e-01 4.022443529571959608e-01 3.585117195834822690e-01 9.780856699397407761e-01 8.870660918748018986e-02 2.854470937453958967e-01 2.481292240060216647e-01 7.637521642416418288e-01 1.637288374634090493e-01 7.063597018777374448e-01 4.493952284284465915e-01 3.946307737002502369e-01 5.695029746197710629e-02 6.019839482748263748e-01 3.124607897821094493e-01 5.645906534853124548e-01 7.351007499081928520e-01 1.083423767791750203e-01 3.928784304393617699e-02 4.911224848165406387e-01 4.833031347366045782e-02 7.480770817949301543e-01 4.930920372575121613e-01 2.493420243127061342e-01 1.607720192466698395e-01 8.765804304593296514e-01 7.274788751788150432e-01 4.862771725073655738e-03 2.631270967449559350e-01 2.339081814863683828e-01 6.033751795401012252e-01 5.610660380884120446e-01 1.607327185097264799e-01 9.195021047094329436e-01 7.120593598516811173e-01 2.458925065050058256e-01 7.939092835856317310e-01 1.571453466925716302e-01 8.708757823987270941e-01 2.496930775982703077e-01 9.239337781034466790e-01 3.507110386679266334e-01 9.501270925993519079e-01 5.364039271191776148e-01
5.045138076401214366e-01 6.954553421161429050e-01 5.124690590921801014e-01 2.195521393211601335e-01 6.338960462844213106e-01 5.598062676915799285e-01 7.013208986477081908e-01 6.228991051243156774e-01 8.711484916031542181e-01 6.754112596936575619e-01 2.480203326707749456e-01 9.961158153452361885e-01 3.873551539786445064e-01 1.492155187055639320e-01 9.590260480839728485e-01 4.049455469149312314e-01 2.687653906969400541e-01 6.962422021317001830e-01 3.009290804462207980e-01 6.747839046761013870e-01 6.069484265393945144e-01 7.729145437713544897e-01 2.336346157165312132e-01 4.023589230441994014e-01 4.480892446789928041e-01 9.838819625452804862e-01 2.268953924951045975e-01 7.728701183664312691e-01 8.953413373005537634e-01 8.601244970379878785e-01 9.692725762889404795e-01 1.068270057600462231e-03 3.667301168561305502e-01 7.146571357135395042e-01 4.593597050863531539e-01 5.189855006480429411e-01 8.521997284497179193e-01 8.996760091559246053e-01 1.973386044004699080e-01 4.814970592315400699e-01 8.570128284492650739e-02 4.670812181923916784e-01 4.081041647487252400e-01 6.772199418368838320e-01 8.736602191874625056e-01 9.571860981571755911e-01 5.999439894086663339e-01 7.211874794746200301e-01 7.925937248721408590e-01 4.050990459651363507e-01 8.759679527135416643e-01 9.099454869690933867e-01 6.032891512356448604e-01 8.969946343789475529e-01 7.573571419916382830e-01 8.717756871299995325e-01 4.999702883070438197e-01 6.677360651591713880e-01 5.012375939197688535e-02 4.757138806156635535e-02 6.799461964876019060e-03 5.723455718832786143e-01 1.047600997439762649e-01 2.192618737714532307e-01 1.812799353474200403e-01 6.608133808730450864e-01 5.752025295936014082e-02 8.440241535283798946e-01 7.496121622931958273e-01 4.839714007054389810e-01 6.329011265109286688e-01 5.305760776318484417e-01 2.985790749011800749e-01 6.973662152458004471e-02 6.345272495508845756e-01 3.085499406921230481e-01 6.743734589087324593e-01 7.474268786341697890e-02 6.501030055334663382e-01 2.052746369146811745e-01 7.396475619385276534e-01 9.788611342148965111e-01 5.864878651143327071e-01 7.964547851305628923e-01 2.385899034123714069e-01 5.102784290052639893e-01 7.794800504308567746e-01 7.356304547700096563e-01 7.641082446339441114e-01 5.902085898441603584e-01 5.785211419550666534e-01 1.596769853477706391e-01 6.905658451333035464e-01 1.999718727243381400e-01 2.761986310209811890e-01 4.747446208004990620e-01 4.205682404063409985e-01 2.866794079674875872e-01 6.085024177455162775e-01 8.341438718088489690e-02
1.002647592288250511e-01 6.102527386861962277e-01 8.052707712132103346e-01 7.320291119879558384e-01 6.494931472896773306e-01 1.761721893160123065e-01 8.174179768641580690e-01 5.155828546954689395e-01 4.687179861894146260e-01 9.895625124576693521e-01 4.378628553723920014e-01 9.912933009594528944e-01 2.309178433196062974e-01 1.202680271910756549e-01 6.605432051320228037e-01 4.544156771781775461e-01 9.830478991675275502e-01 8.126983515764494292e-01 4.809086835663278769e-01 2.551997232660979664e-01 2.492623276138018484e-01 7.646690655537695669e-01 1.276354589014555563e-01 9.317686961878951513e-01 5.185604856448560174e-01 8.564890238421000168e-01 9.193935672806989867e-01 1.414553451098932157e-02 4.950936785072410640e-01 2.350003004685867758e-01 4.672502203033097601e-01 7.831690330609359929e-01 5.875683891052656538e-01 7.843758146830679401e-01 5.471568321718497385e-01 6.477841426360244625e-01 2.847041626020290206e-01 2.978505814287504272e-01 1.738826158602819749e-01 1.750653678067841668e-01 6.040544245343524299e-01 8.826037580938970173e-01 8.360696095363820968e-01 3.961523747059980671e-02 5.895633567068849779e-01 5.154799299099184218e-01 6.036388061712451014e-01 4.975559271633989145e-01 1.744448324611713730e-01 3.707932878704388591e-01 4.344951356354587180e-01 9.957822828721295538e-01 3.560819395306029644e-01 6.994384847911295777e-01 5.662557892864594766e-01 8.886676837423532760e-01 9.960886562536279687e-01 6.321265041019236142e-01 3.941976273295506594e-01 7.998839990731509975e-01 2.895103150608924203e-01 9.375047806891741997e-01 1.320715641269979423e-01 1.918864980365700967e-01 1.693449731807591396e-01 4.416132144481864641e-01 2.784345039151815415e-01 7.248441443558603092e-01 1.001279314282195188e-01 3.402595898455893497e-01 7.909279987350733565e-01 7.666675697097143916e-01 7.685587136936680164e-01 1.510799298313633132e-01 4.030809016263385836e-01 3.254720023245063487e-01 9.979053643209916391e-01 5.817423477089489481e-01 1.704230002508198005e-01 2.419377243531793953e-01 6.293007194798539983e-01 3.405248815285899511e-01 8.123485361519892090e-01 3.131548217216330032e-01 9.498466150221178683e-01 6.034702700558042254e-01 4.243408463462480240e-01 7.761110426826878239e-01 8.263453652988330678e-01 9.254968450590165263e-01 6.719726591761145951e-01 2.809705298917494209e-01 7.975109381556196864e-01 3.301775724304526483e-01 6.834697845059050092e-01 9.632460265816416012e-01 9.457152026281633317e-01 8.929445843603558419e-01 2.172111626580216504e-01 9.800487774401538399e-01
7.523255445472686320e-01 1.524068590908734810e-01 2.472870376452908081e-01 1.114027170589695359e-01 7.185364756767158578e-01 5.666239111431744524e-01 2.536172127461833181e-02 4.348153894874730030e-01 5.094024492906834567e-01 7.406101250438468231e-01 6.675331858547624009e-01 3.287552952938164186e-01 8.811153904165480721e-01 8.861507019419948561e-01 1.111592057802801570e-02 4.363742098653952128e-01 4.038600929016376018e-01 8.609755604231772441e-01 2.861679862669264107e-02 6.399791048230166757e-01 5.320433784346291217e-01 5.425665951196777526e-01 8.117491024819080137e-01 6.451783783932989458e-01 4.069859481618646191e-01 2.760967903480897601e-01 4.208071511782266461e-01 8.290455683577205859e-01 7.956519508039553434e-01 9.379611693589485766e-01 4.375292264247250262e-01 7.756005408697735914e-01 2.471988701491247831e-01 2.730604637778064614e-01 6.585408093958542430e-01 6.575120635673044056e-01 5.302775037892689669e-01 9.900745221887772285e-01 2.821294556077041937e-01 9.564150032071661034e-02 1.933386315422385149e-01 4.652822787081678513e-01 8.933399435807853894e-01 5.113133996743979282e-01 3.118169739401476237e-01 1.331722175588722079e-01 4.561786586042176905e-01 5.005384485429854591e-01 5.241569026220904703e-02 6.565387890915288516e-01 7.729473444008374550e-01 8.524729678336058214e-01 6.892951286268713673e-01 6.212084928793215610e-01 8.210696359177819259e-01 9.009659522753030725e-01 5.967296796070842291e-01 5.713923640891102051e-01 5.988477493218661296e-01 3.459082184092040491e-01 3.393742614296977322e-01 5.027976422151436697e-01 2.271436543792959561e-02 4.944049470281364211e-02 6.429306502009142221e-01 3.822681873600908276e-03 7.613722515966887538e-01 6.943057070483751314e-01 1.257375239751556961e-03 7.576233412650168475e-02 8.047126740978487458e-01 7.960909924185712860e-01 6.907082512082722836e-01 2.689982601579452570e-01 7.830496113781200140e-01 6.313774804846239430e-01 3.565364750242121517e-01 9.686931859654370758e-01 1.820559063897152496e-01 3.333787431959904790e-01 5.146581508963798957e-01 8.766776473096304922e-01 3.279497978207540632e-01 5.363337433032251411e-01 3.133630077954615567e-01 7.180778963011644755e-01 2.068350539427514789e-01 7.915450985118955840e-01 3.802071108908203767e-01 4.440128389873774228e-01 5.020195717864620599e-01 2.964998980828522646e-01 2.596719879814597398e-01 1.402587736278708697e-01 8.323840512437852279e-01 6.305288745732295919e-01 9.494802175533312294e-02 8.831268261186696611e-01 3.084355963677377632e-01 1.278389126377910134e-02
2.513802242066234260e-01 1.764169121511827143e-01 6.450055772771560170e-01 5.765553694141100083e-01 1.544043545937853201e-01 6.064477514855431961e-01 8.532430213267742092e-01 7.536076598099543666e-01 8.038855840074449199e-01 7.368473086470006539e-01 7.176377577137088570e-01 2.971956207701014208e-01 7.551845605458333832e-01 1.969275317671950187e-01 3.749166745656311583e-01 8.080599377112669401e-01 2.216607481154120318e-02 5.595845559897894006e-03 9.272486069194600944e-01 2.682215204766932315e-01 8.527047273298027363e-01 3.650486167705242480e-01 6.627931169278997725e-01 9.058383587449261309e-01 7.001798577266389323e-01 3.592225409640933398e-01 8.223543181481697273e-01 8.611360295008544385e-01 1.797559195855552572e-01 6.671595866343075221e-01 3.024438627041126093e-02 5.726909274892224566e-01 2.219461710823069645e-01 9.737071071602576566e-01 5.842289278444081635e-01 2.099380526144692949e-01 9.829989279777685551e-01 5.753196922022609794e-01 1.993576448123287603e-01 1.384220474453168315e-02 7.960252064217647749e-01 1.617420772061213263e-01 3.544327803026415813e-01 9.855812028178724260e-01 8.857636069267076362e-01 4.700282340958458205e-01 4.901378662200418512e-01 7.576886194969493227e-01 4.856135691696744638e-01 2.495736194386034557e-01 6.195861453294306820e-01 5.298647268020677537e-01 3.772847226457677339e-01 2.596746867516098733e-01 5.638199972937264493e-01 6.681820985095373588e-01 1.751247956219603719e-01 6.732755497082969498e-01 3.363031662252460308e-01 6.125930080604107264e-01 9.631487968775299668e-01 8.430447508866717454e-01 4.311844088294772837e-01 5.582079399486771232e-01 8.330781940980815925e-01 6.275945721794488064e-01 1.139896553959143244e-01 7.684371484334240332e-01 3.302530554725453538e-01 6.702770664114207078e-01 3.024871439430459885e-01 6.384222143789486381e-02 8.866944849456472877e-01 3.961991926625842986e-01 6.688633509883179507e-02 6.690336357001389622e-01 6.810357422576637232e-01 8.165488799699547329e-01 1.159775199140616886e-01 8.227821381865092487e-01 1.043503564380432458e-01 5.543463567840308803e-01 4.097185624144573657e-01 7.521658577743082219e-01 9.522296436785574469e-01 4.728265987456395925e-01 2.433993697782241838e-01 4.744959325936159988e-01 9.230789355473021374e-01 7.176193417104552719e-01 1.328616343591555449e-01 4.469009768266738458e-01 6.395546410450512198e-01 5.799880334365734580e-01 8.731261747597917067e-01 6.578409496787388511e-01 2.041509695095067300e-02 9.780945549538849759e-01 4.040493068679856803e-01 9.287865343248651318e-01
3.355840115189721029e-01 6.241513223282041389e-01 4.114657072593224107e-01 6.097294060553394290e-01 4.675635895877540138e-01 2.729837331472375617e-01 8.818407841860086416e-01 9.159291345236661996e-01 4.682693817739744802e-01 4.207255366122736318e-01 6.166807024785215807e-01 3.237296953524915200e-02 4.211717501992908730e-01 5.252104898854940140e-01 9.070972731218851504e-01 8.536234496503479763e-01 5.708243915934229085e-01 8.127058237237858584e-01 2.227717574370736697e-01 9.437145658910855994e-01 8.276099997149571896e-01 1.504880925409873837e-01 6.847069719411286171e-01 7.158362504128020776e-01 1.045763458135140489e-02 7.884230571266467313e-01 9.784272868746916041e-01 9.358478748523770818e-01 8.333108897951652105e-01 5.208874072572644565e-01 5.595781364710392669e-01 4.800591401380484013e-01 4.602069586512660404e-01 4.028842057924884035e-01 5.411968240385678364e-02 1.582859388848042448e-01 8.615628500285773539e-01 8.868999871378774325e-01 7.375144579123783517e-01 2.882665045612402555e-01 7.712903627512579519e-02 7.037328626061810644e-01 4.993399833452610848e-01 3.386453342422561796e-01 6.651280089819658903e-01 2.655908800299610073e-01 8.662993566713883542e-02 1.565447011335163729e-01 7.392300837640177757e-01 4.796792690581108687e-01 5.682725032450719471e-02 1.866024658551690418e-01 1.497230976207427622e-01 3.801645597983104308e-01 9.208111887660911377e-01 7.507356165735673548e-01 1.405820581510406342e-01 4.256600710170395097e-01 2.315816993591712780e-02 5.622123189074867966e-02 9.808585192073840942e-01 2.272716778570516016e-01 2.285166010591391794e-01 3.012566162162799710e-02 5.274359658812601825e-01 6.671549380441421651e-02 5.801861343757732659e-01 5.340878842956722217e-01 6.662592616661847655e-01 9.555680305421019316e-01 8.024797262758120997e-02 2.938402595970768250e-02 8.189418488790317641e-01 9.837607466051415672e-01 3.850638701983953860e-01 9.723946601349705565e-01 9.161503611630694710e-01 5.161363750443076492e-01 2.658300278880075806e-01 1.390884692948903822e-01 3.174218988353920690e-01 4.320324725980186908e-01 8.460598285722353840e-02 2.745367013316596383e-01 3.701098261220792107e-01 3.867078464908448865e-01 1.357497109077518971e-01 3.537227361006286541e-01 1.100338678971197748e-01 2.263169545225971468e-01 4.106051122879736948e-01 8.130866658315920592e-01 2.635961462372108377e-01 5.755419417923682834e-01 7.792218421786279992e-01 7.032282667802631781e-01 6.144777586045002682e-02 2.651927457921111619e-01 7.898729946404730029e-01 5.730922333592090023e-01
6.764833920403797718e-01 3.119894259346459586e-01 6.231630956348233052e-02 4.756641110349911772e-01 1.424627827365838595e-01 6.495443277350209099e-01 1.514111924779715235e-02 6.182856188482542814e-01 9.754353184326139958e-01 5.980073639136811448e-01 1.242103315525509011e-01 5.419049079429550941e-01 3.966737416403384175e-01 9.343513336427522464e-02 3.371807427042726735e-01 6.406603005384395866e-01 6.893750239607333574e-01 7.620779673535216237e-02 6.772701141898374022e-02 7.444199025105431300e-01 3.221241092688649221e-01 9.480186013012925628e-01 7.721463267330141989e-03 2.860855685439293028e-01 6.067191186871702113e-01 2.032164452362389406e-01 1.596559210496661940e-01 8.117602362851222830e-01 4.824987083893987894e-01 7.133752635607192305e-01 1.702528091597005355e-01 8.257236292297993607e-01 4.967238985649550242e-01 8.068755950239644426e-01 7.860169677218531437e-01 3.715465473397038254e-01 4.081385421730769902e-01 5.387280889930914363e-01 1.244136412779287548e-01 5.561937490886917912e-01 7.071852071704616272e-01 6.699586922865727878e-01 2.283977040364471023e-01 7.162451396251501290e-01 6.998777512605123263e-01 3.402048706669317246e-01 8.424772056706713030e-01 7.080659839963787672e-01 4.553865710432488667e-01 2.677737043928063443e-02 7.864517065803798834e-01 4.334331027694282579e-01 1.688532442230639141e-01 8.521777159845540517e-01 4.808891969558800605e-01 5.194242291020567670e-01 2.794720030277707545e-01 6.983889626529793393e-02 8.074176663976389001e-01 4.016958255757183682e-01 4.270169602748290494e-01 3.356928801766656534e-02 8.038844859075702232e-01 9.673128681512694893e-01 4.974127672305939107e-02 7.697499253799817698e-01 2.071806500854491695e-01 7.445119838786576905e-01 2.316298341767711877e-01 1.113698969347745038e-01 4.499837460214929363e-01 3.113989900689693169e-01 5.369878970606856150e-02 5.244618915295417017e-01 4.905647525912613105e-01 1.687007665479961505e-01 7.795515398177835786e-01 6.503999843136898384e-02 8.791370656028846264e-01 1.036070673511986229e-01 3.550599712381079520e-01 1.656323086658623156e-01 1.780715422117452595e-01 4.813275822888136712e-01 4.113087651792650679e-01 4.043899554141537900e-01 6.701593034878274846e-01 9.984591889728092751e-01 6.226969463367710844e-01 9.072749822857243407e-01 3.639438348249243171e-01 8.688833971697791370e-01 7.788295628445461860e-01 6.301627751622889129e-01 3.604985668917959352e-02 4.664187888660527026e-01 5.211700982989115882e-01 3.095543741410544669e-02 8.073779764149847660e-01 9.239678097626178310e-01
5.344823026635505681e-01 9.052531959677516671e-01 8.654221910229705772e-01 6.128039515025125450e-01 8.629322062256655768e-01 5.874917840047322315e-02 2.053353602957865842e-01 3.529484802142476285e-01 7.419487119114980267e-01 5.646208066513913604e-02 1.251751187541398913e-01 2.925039860708649186e-01 3.203899135805488019e-01 3.165701878967743799e-01 2.228871902246348791e-01 7.437968729426976955e-01 7.456638915802875633e-01 2.379657878933870707e-01 8.675039233641859138e-01 1.740298664365679260e-01 3.346813520962760302e-01 4.985209655939452089e-01 1.722567124039314779e-01 4.824180589971068800e-01 3.597333111748080015e-01 6.157671474589410110e-01 7.945397821119926096e-02 2.386195984119823255e-01 9.686869538157386605e-01 7.988567227798571979e-01 6.755171686188563562e-01 1.240308157907484832e-01 3.718677501781800787e-01 5.783384926071802878e-01 9.863367189618724717e-01 4.514303781700522711e-01 8.109830423054293913e-01 2.840898887705531894e-01 7.889297826108764289e-01 4.032630591602229808e-01 8.921761552928808570e-01 5.850512572580648385e-01 4.485602580618961444e-01 2.272733723167944531e-01 2.615197998225069487e-01 5.723947445793142741e-01 3.782992745203913598e-01 8.751516771598198963e-01 9.470602881864754741e-01 4.396722882036374624e-01 4.814398816541858306e-01 4.809160402828360770e-02 4.876188569189654487e-01 4.462400355815305808e-01 3.277877292416484512e-01 4.097670722918467234e-01 1.500404863790438803e-01 8.479378763400292618e-01 9.682622856209921469e-02 1.221751857447932466e-01 4.885818646752497774e-01 4.899497359785893735e-01 1.658986449487246384e-01 1.258344928023569231e-01 2.457385078627543074e-01 9.071699912640313057e-01 6.863353152379035871e-01 5.759649946203184712e-01 8.616859272513044399e-02 6.471188616380493253e-01 6.163045616053803855e-01 6.487455325852019561e-01 9.423620833065701197e-01 4.650549005875660447e-01 3.129530622358199787e-01 5.266979598020097297e-01 5.140618677787803792e-01 9.762121912750045816e-01 8.547156499471342261e-01 1.307358567811561789e-01 7.974733597684714459e-01 1.031167943974400369e-01 4.253897835625353174e-03 1.379698042326620300e-01 7.170359909510102270e-01 1.505853395315673859e-01 8.901062668149044566e-01 8.347440804282224569e-01 1.958049756141357900e-01 2.803543585657961579e-01 6.693868795928960003e-01 8.855704086292681687e-02 5.247308383260397280e-01 6.551439441304439670e-01 5.576235966525741050e-01 6.064042200322751208e-01 5.607205335330283091e-01 8.893850044314851599e-01 9.947008066188822717e-02 2.846446078627196119e-02
